recording_name,trial_number,subject_id,dataset_name,age_months,target_word,yoked_target,yoked_distractor,yoked_pair,media_name,initial_look,samples_target,samples_distractor,prop_looking,prop_looking_diff,number_fixations,correct_shift,remain_on_target,latency_to_switch,total_aoi_switches,duration_of_look,first_look_dur,longest_look_by_trial,age_months_centred,data_split
0_0_casillas_tseltal_2015_14,1,0,casillas_tseltal_2015,14,wa,NA,NA,NA,tortilla,distractor,0,106,0,NA,NA,0,NA,NA,0,NA,NA,NA,-11,all
0_0_casillas_tseltal_2015_14,2,0,casillas_tseltal_2015,14,moch,NA,NA,NA,basket-tseltal,distractor,0,106,0,NA,NA,0,NA,NA,0,NA,NA,NA,-11,all
0_0_casillas_tseltal_2015_14,3,0,casillas_tseltal_2015,14,pelota,NA,NA,NA,ball,distractor,0,106,0,NA,NA,0,NA,NA,0,NA,NA,NA,-11,all
0_0_casillas_tseltal_2015_14,4,0,casillas_tseltal_2015,14,chojak',NA,NA,NA,purse-tseltal,distractor,0,106,0,NA,NA,0,NA,NA,0,NA,NA,NA,-11,all
0_0_casillas_tseltal_2015_14,5,0,casillas_tseltal_2015,14,baso,NA,NA,NA,cup,distractor,27,76,0.2621359223300971,NA,1,1,NA,490,2,1080,1080,1080,-11,all
0_0_casillas_tseltal_2015_14,6,0,casillas_tseltal_2015,14,nichim,NA,NA,NA,flower,target,106,0,1,NA,1,NA,1,NA,0,4240,4240,4240,-11,all
0_0_casillas_tseltal_2015_14,7,0,casillas_tseltal_2015,14,balti,NA,NA,NA,bucket,distractor,15,86,0.1485148514851485,NA,1,0,NA,NA,1,600,600,600,-11,all
0_0_casillas_tseltal_2015_14,8,0,casillas_tseltal_2015,14,mut,NA,NA,NA,chicken,target,106,0,1,NA,1,NA,1,NA,0,4240,4240,4240,-11,all
0_0_casillas_tseltal_2015_14,9,0,casillas_tseltal_2015,14,k'ajk',NA,NA,NA,fire,target,13,93,0.12264150943396226,NA,1,NA,0,NA,1,520,520,520,-11,all
0_0_casillas_tseltal_2015_14,10,0,casillas_tseltal_2015,14,mexa,NA,NA,NA,table,target,106,0,1,NA,1,NA,1,NA,0,4240,4240,4240,-11,all
0_0_casillas_tseltal_2015_14,11,0,casillas_tseltal_2015,14,xawin,NA,NA,NA,cat,distractor,0,106,0,NA,NA,0,NA,NA,0,NA,NA,NA,-11,all
0_0_casillas_tseltal_2015_14,12,0,casillas_tseltal_2015,14,ja',NA,NA,NA,water,distractor,96,8,0.9230769230769231,NA,1,1,NA,215,0,3840,3840,3840,-11,all
0_0_casillas_tseltal_2015_14,13,0,casillas_tseltal_2015,14,ixim,NA,NA,NA,corn,target,96,8,0.9230769230769231,NA,2,NA,0,NA,0,1920,1600,2240,-11,all
0_0_casillas_tseltal_2015_14,14,0,casillas_tseltal_2015,14,karo,NA,NA,NA,car,target,106,0,1,NA,1,NA,1,NA,0,4240,4240,4240,-11,all
0_0_casillas_tseltal_2015_14,15,0,casillas_tseltal_2015,14,na,NA,NA,NA,house,distractor,0,106,0,NA,NA,0,NA,NA,0,NA,NA,NA,-11,all
0_0_casillas_tseltal_2015_14,16,0,casillas_tseltal_2015,14,te,NA,NA,NA,tree,target,16,88,0.15384615384615385,NA,1,NA,0,NA,1,640,640,640,-11,all
0_0_casillas_tseltal_2015_14,17,0,casillas_tseltal_2015,14,waybal,NA,NA,NA,bed,target,106,0,1,NA,1,NA,1,NA,0,4240,4240,4240,-11,all
0_0_casillas_tseltal_2015_14,18,0,casillas_tseltal_2015,14,t'inel,NA,NA,NA,doorway,distractor,22,80,0.21568627450980393,NA,1,1,NA,615,2,880,880,880,-11,all
0_0_casillas_tseltal_2015_14,19,0,casillas_tseltal_2015,14,lo'bal,NA,NA,NA,banana,target,35,69,0.33653846153846156,NA,1,NA,0,NA,1,1400,1400,1400,-11,all
0_0_casillas_tseltal_2015_14,20,0,casillas_tseltal_2015,14,chenek',NA,NA,NA,bean,target,70,34,0.6730769230769231,NA,1,NA,1,NA,1,2800,2800,2800,-11,all
0_0_casillas_tseltal_2015_14,21,0,casillas_tseltal_2015,14,tz'i,NA,NA,NA,dog,distractor,0,106,0,NA,NA,0,NA,NA,0,NA,NA,NA,-11,all
0_0_casillas_tseltal_2015_14,22,0,casillas_tseltal_2015,14,tomut,NA,NA,NA,egg,distractor,0,106,0,NA,NA,0,NA,NA,0,NA,NA,NA,-11,all
0_0_casillas_tseltal_2015_14,23,0,casillas_tseltal_2015,14,p'in,NA,NA,NA,pot-tseltal,target,106,0,1,NA,1,NA,1,NA,0,4240,4240,4240,-11,all
0_0_casillas_tseltal_2015_14,24,0,casillas_tseltal_2015,14,tzek',NA,NA,NA,skirt-tseltal,target,106,0,1,NA,1,NA,1,NA,0,4240,4240,4240,-11,all
0_0_casillas_tseltal_2015_14,25,0,casillas_tseltal_2015,14,ich,NA,NA,NA,chile,target,38,66,0.36538461538461536,NA,1,NA,0,NA,1,1520,1520,1520,-11,all
0_0_casillas_tseltal_2015_14,26,0,casillas_tseltal_2015,14,xila,NA,NA,NA,chair,target,40,64,0.38461538461538464,NA,1,NA,0,NA,1,1600,1600,1600,-11,all
0_0_casillas_tseltal_2015_14,27,0,casillas_tseltal_2015,14,mes,NA,NA,NA,broom,distractor,0,106,0,NA,NA,0,NA,NA,0,NA,NA,NA,-11,all
0_0_casillas_tseltal_2015_14,28,0,casillas_tseltal_2015,14,machit,NA,NA,NA,machete,distractor,0,106,0,NA,NA,0,NA,NA,0,NA,NA,NA,-11,all
0_0_casillas_tseltal_2015_14,29,0,casillas_tseltal_2015,14,si',NA,NA,NA,firewood,distractor,69,35,0.6634615384615384,NA,1,1,NA,940,1,2760,2760,2760,-11,all
1_1_casillas_tseltal_2015_22,1,1,casillas_tseltal_2015,22,wa,NA,NA,NA,tortilla,target,70,35,0.6666666666666666,NA,2,NA,0,NA,2,1400,720,2080,-3,all
1_1_casillas_tseltal_2015_22,2,1,casillas_tseltal_2015,22,moch,NA,NA,NA,basket-tseltal,distractor,35,66,0.3465346534653465,NA,1,1,NA,415,2,1400,1400,1400,-3,all
1_1_casillas_tseltal_2015_22,3,1,casillas_tseltal_2015,22,pelota,NA,NA,NA,ball,target,106,0,1,NA,1,NA,1,NA,0,4240,4240,4240,-3,all
1_1_casillas_tseltal_2015_22,4,1,casillas_tseltal_2015,22,chojak',NA,NA,NA,purse-tseltal,target,27,76,0.2621359223300971,NA,1,NA,0,NA,1,1080,1080,1080,-3,all
1_1_casillas_tseltal_2015_22,5,1,casillas_tseltal_2015,22,baso,NA,NA,NA,cup,distractor,70,32,0.6862745098039216,NA,1,1,NA,540,2,2800,2800,2800,-3,all
1_1_casillas_tseltal_2015_22,6,1,casillas_tseltal_2015,22,nichim,NA,NA,NA,flower,target,64,40,0.6153846153846154,NA,1,NA,1,NA,1,2560,2560,2560,-3,all
1_1_casillas_tseltal_2015_22,7,1,casillas_tseltal_2015,22,balti,NA,NA,NA,bucket,distractor,5,98,0.04854368932038835,NA,NA,0,NA,NA,0,NA,200,NA,-3,all
1_1_casillas_tseltal_2015_22,8,1,casillas_tseltal_2015,22,mut,NA,NA,NA,chicken,distractor,48,54,0.47058823529411764,NA,1,0,NA,NA,1,1920,1920,1920,-3,all
1_1_casillas_tseltal_2015_22,9,1,casillas_tseltal_2015,22,k'ajk',NA,NA,NA,fire,target,106,0,1,NA,1,NA,1,NA,0,4240,4240,4240,-3,all
1_1_casillas_tseltal_2015_22,10,1,casillas_tseltal_2015,22,mexa,NA,NA,NA,table,neither,56,0,1,NA,1,NA,NA,NA,0,2240,2240,2240,-3,all
1_1_casillas_tseltal_2015_22,11,1,casillas_tseltal_2015,22,xawin,NA,NA,NA,cat,distractor,61,42,0.5922330097087378,NA,1,1,NA,1140,1,2440,2440,2440,-3,all
1_1_casillas_tseltal_2015_22,12,1,casillas_tseltal_2015,22,ja',NA,NA,NA,water,distractor,58,46,0.5576923076923077,NA,1,1,NA,1215,1,2320,2320,2320,-3,all
1_1_casillas_tseltal_2015_22,13,1,casillas_tseltal_2015,22,ixim,NA,NA,NA,corn,distractor,79,24,0.7669902912621359,NA,1,1,NA,690,1,3160,3160,3160,-3,all
1_1_casillas_tseltal_2015_22,14,1,casillas_tseltal_2015,22,karo,NA,NA,NA,car,target,77,24,0.7623762376237624,NA,2,NA,0,NA,2,1540,960,2120,-3,all
1_1_casillas_tseltal_2015_22,15,1,casillas_tseltal_2015,22,na,NA,NA,NA,house,distractor,0,106,0,NA,NA,0,NA,NA,0,NA,NA,NA,-3,all
1_1_casillas_tseltal_2015_22,16,1,casillas_tseltal_2015,22,te,NA,NA,NA,tree,distractor,0,106,0,NA,NA,0,NA,NA,0,NA,NA,NA,-3,all
1_1_casillas_tseltal_2015_22,17,1,casillas_tseltal_2015,22,waybal,NA,NA,NA,bed,distractor,46,52,0.46938775510204084,NA,2,1,NA,465,4,920,1200,1200,-3,all
1_1_casillas_tseltal_2015_22,18,1,casillas_tseltal_2015,22,t'inel,NA,NA,NA,doorway,distractor,52,53,0.49523809523809526,NA,1,1,NA,1365,1,2080,2080,2080,-3,all
1_1_casillas_tseltal_2015_22,19,1,casillas_tseltal_2015,22,lo'bal,NA,NA,NA,banana,target,106,0,1,NA,1,NA,1,NA,0,4240,4240,4240,-3,all
1_1_casillas_tseltal_2015_22,20,1,casillas_tseltal_2015,22,chenek',NA,NA,NA,bean,distractor,0,106,0,NA,NA,0,NA,NA,0,NA,NA,NA,-3,all
1_1_casillas_tseltal_2015_22,21,1,casillas_tseltal_2015,22,tz'i,NA,NA,NA,dog,target,106,0,1,NA,1,NA,1,NA,0,4240,4240,4240,-3,all
1_1_casillas_tseltal_2015_22,22,1,casillas_tseltal_2015,22,tomut,NA,NA,NA,egg,distractor,0,106,0,NA,NA,0,NA,NA,0,NA,NA,NA,-3,all
1_1_casillas_tseltal_2015_22,23,1,casillas_tseltal_2015,22,p'in,NA,NA,NA,pot-tseltal,target,41,58,0.41414141414141414,NA,1,NA,0,NA,1,1240,400,1240,-3,all
1_1_casillas_tseltal_2015_22,24,1,casillas_tseltal_2015,22,tzek',NA,NA,NA,skirt-tseltal,target,106,0,1,NA,1,NA,1,NA,0,4240,4240,4240,-3,all
1_1_casillas_tseltal_2015_22,25,1,casillas_tseltal_2015,22,ich,NA,NA,NA,chile,distractor,63,42,0.6,NA,1,1,NA,1090,1,2520,2520,2520,-3,all
1_1_casillas_tseltal_2015_22,26,1,casillas_tseltal_2015,22,xila,NA,NA,NA,chair,distractor,53,50,0.5145631067961165,NA,1,1,NA,1340,1,2120,2120,2120,-3,all
1_1_casillas_tseltal_2015_22,27,1,casillas_tseltal_2015,22,mes,NA,NA,NA,broom,distractor,40,64,0.38461538461538464,NA,1,0,NA,NA,1,1600,1600,1600,-3,all
1_1_casillas_tseltal_2015_22,28,1,casillas_tseltal_2015,22,machit,NA,NA,NA,machete,distractor,63,40,0.6116504854368932,NA,1,1,NA,1090,1,2520,2520,2520,-3,all
1_1_casillas_tseltal_2015_22,29,1,casillas_tseltal_2015,22,si',NA,NA,NA,firewood,distractor,26,77,0.2524271844660194,NA,1,0,NA,NA,1,1040,1040,1040,-3,all
1_1_casillas_tseltal_2015_22,30,1,casillas_tseltal_2015,22,bojch,NA,NA,NA,bowl-tseltal,distractor,77,26,0.7475728155339806,NA,1,1,NA,740,1,3080,3080,3080,-3,all
2_2_casillas_tseltal_2015_45,1,2,casillas_tseltal_2015,45,wa,NA,NA,NA,tortilla,target,37,55,0.40217391304347827,NA,1,NA,0,NA,3,640,440,640,20,all
2_2_casillas_tseltal_2015_45,2,2,casillas_tseltal_2015,45,moch,NA,NA,NA,basket-tseltal,distractor,59,42,0.5841584158415841,NA,1,1,NA,690,2,2360,2360,2360,20,all
2_2_casillas_tseltal_2015_45,3,2,casillas_tseltal_2015,45,pelota,NA,NA,NA,ball,target,74,17,0.8131868131868132,NA,2,NA,1,NA,2,1480,2240,2240,20,all
2_2_casillas_tseltal_2015_45,4,2,casillas_tseltal_2015,45,chojak',NA,NA,NA,purse-tseltal,distractor,47,47,0.5,NA,1,1,NA,565,2,1880,1880,1880,20,all
2_2_casillas_tseltal_2015_45,5,2,casillas_tseltal_2015,45,baso,NA,NA,NA,cup,distractor,70,26,0.7291666666666666,NA,1,1,NA,140,1,2480,2480,2480,20,all
2_2_casillas_tseltal_2015_45,6,2,casillas_tseltal_2015,45,nichim,NA,NA,NA,flower,target,85,17,0.8333333333333334,NA,2,NA,1,NA,2,1700,2160,2160,20,all
2_2_casillas_tseltal_2015_45,7,2,casillas_tseltal_2015,45,balti,NA,NA,NA,bucket,distractor,51,48,0.5151515151515151,NA,1,1,NA,290,1,2040,2040,2040,20,all
2_2_casillas_tseltal_2015_45,8,2,casillas_tseltal_2015,45,mut,NA,NA,NA,chicken,target,62,38,0.62,NA,2,NA,0,NA,2,1240,1520,1520,20,all
2_2_casillas_tseltal_2015_45,9,2,casillas_tseltal_2015,45,k'ajk',NA,NA,NA,fire,distractor,68,34,0.6666666666666666,NA,1,1,NA,165,1,2720,2720,2720,20,all
2_2_casillas_tseltal_2015_45,10,2,casillas_tseltal_2015,45,mexa,NA,NA,NA,table,target,82,16,0.8367346938775511,NA,1,NA,0,NA,0,3280,3280,3280,20,all
2_2_casillas_tseltal_2015_45,11,2,casillas_tseltal_2015,45,xawin,NA,NA,NA,cat,target,46,50,0.4791666666666667,NA,2,NA,0,NA,2,920,1000,1000,20,all
2_2_casillas_tseltal_2015_45,12,2,casillas_tseltal_2015,45,ja',NA,NA,NA,water,target,44,60,0.4230769230769231,NA,2,NA,0,NA,3,880,720,1040,20,all
2_2_casillas_tseltal_2015_45,13,2,casillas_tseltal_2015,45,ixim,NA,NA,NA,corn,distractor,59,39,0.6020408163265306,NA,2,1,NA,415,3,1180,1800,1800,20,all
2_2_casillas_tseltal_2015_45,14,2,casillas_tseltal_2015,45,karo,NA,NA,NA,car,target,75,24,0.7575757575757576,NA,1,NA,1,NA,1,2680,2680,2680,20,all
2_2_casillas_tseltal_2015_45,15,2,casillas_tseltal_2015,45,na,NA,NA,NA,house,target,106,0,1,NA,1,NA,1,NA,0,4240,4240,4240,20,all
2_2_casillas_tseltal_2015_45,16,2,casillas_tseltal_2015,45,te,NA,NA,NA,tree,distractor,61,31,0.6630434782608695,NA,1,1,NA,290,1,2440,2440,2440,20,all
2_2_casillas_tseltal_2015_45,17,2,casillas_tseltal_2015,45,waybal,NA,NA,NA,bed,target,106,0,1,NA,1,NA,1,NA,0,4240,4240,4240,20,all
2_2_casillas_tseltal_2015_45,18,2,casillas_tseltal_2015,45,t'inel,NA,NA,NA,doorway,target,78,24,0.7647058823529411,NA,2,NA,1,NA,2,1560,2640,2640,20,all
2_2_casillas_tseltal_2015_45,19,2,casillas_tseltal_2015,45,lo'bal,NA,NA,NA,banana,distractor,63,10,0.863013698630137,NA,1,1,NA,765,0,2520,2520,2520,20,all
2_2_casillas_tseltal_2015_45,20,2,casillas_tseltal_2015,45,chenek',NA,NA,NA,bean,target,91,13,0.875,NA,1,NA,0,NA,1,3200,440,3200,20,all
2_2_casillas_tseltal_2015_45,21,2,casillas_tseltal_2015,45,tz'i,NA,NA,NA,dog,target,56,45,0.5544554455445545,NA,2,NA,0,NA,2,1120,880,1360,20,all
2_2_casillas_tseltal_2015_45,22,2,casillas_tseltal_2015,45,tomut,NA,NA,NA,egg,distractor,37,53,0.4111111111111111,NA,1,1,NA,65,1,1080,1080,1080,20,all
2_2_casillas_tseltal_2015_45,23,2,casillas_tseltal_2015,45,p'in,NA,NA,NA,pot-tseltal,target,94,10,0.9038461538461539,NA,1,NA,1,NA,0,3760,3760,3760,20,all
2_2_casillas_tseltal_2015_45,24,2,casillas_tseltal_2015,45,tzek',NA,NA,NA,skirt-tseltal,distractor,64,36,0.64,NA,1,1,NA,490,2,2560,2560,2560,20,all
2_2_casillas_tseltal_2015_45,25,2,casillas_tseltal_2015,45,ich,NA,NA,NA,chile,distractor,86,14,0.86,NA,1,1,NA,340,0,3440,3440,3440,20,all
2_2_casillas_tseltal_2015_45,26,2,casillas_tseltal_2015,45,xila,NA,NA,NA,chair,distractor,69,32,0.6831683168316832,NA,1,1,NA,290,1,2760,2760,2760,20,all
2_2_casillas_tseltal_2015_45,27,2,casillas_tseltal_2015,45,mes,NA,NA,NA,broom,target,50,49,0.5050505050505051,NA,2,NA,0,NA,2,1000,760,1240,20,all
2_2_casillas_tseltal_2015_45,28,2,casillas_tseltal_2015,45,machit,NA,NA,NA,machete,target,94,10,0.9038461538461539,NA,1,NA,1,NA,0,3760,3760,3760,20,all
2_2_casillas_tseltal_2015_45,29,2,casillas_tseltal_2015,45,si',NA,NA,NA,firewood,distractor,104,0,1,NA,1,1,NA,65,0,4160,4160,4160,20,all
2_2_casillas_tseltal_2015_45,30,2,casillas_tseltal_2015,45,bojch,NA,NA,NA,bowl-tseltal,distractor,74,30,0.7115384615384616,NA,1,1,NA,215,1,2960,2960,2960,20,all
3_3_casillas_tseltal_2015_22,1,3,casillas_tseltal_2015,22,wa,NA,NA,NA,tortilla,distractor,11,84,0.11578947368421053,NA,NA,0,NA,NA,0,NA,440,NA,-3,all
3_3_casillas_tseltal_2015_22,2,3,casillas_tseltal_2015,22,moch,NA,NA,NA,basket-tseltal,target,106,0,1,NA,1,NA,1,NA,0,4240,4240,4240,-3,all
3_3_casillas_tseltal_2015_22,3,3,casillas_tseltal_2015,22,pelota,NA,NA,NA,ball,target,74,28,0.7254901960784313,NA,2,NA,0,NA,2,1480,1280,1680,-3,all
3_3_casillas_tseltal_2015_22,4,3,casillas_tseltal_2015,22,chojak',NA,NA,NA,purse-tseltal,distractor,0,106,0,NA,NA,0,NA,NA,0,NA,NA,NA,-3,all
3_3_casillas_tseltal_2015_22,5,3,casillas_tseltal_2015,22,baso,NA,NA,NA,cup,distractor,88,16,0.8461538461538461,NA,1,1,NA,465,1,3520,3520,3520,-3,all
3_3_casillas_tseltal_2015_22,6,3,casillas_tseltal_2015,22,nichim,NA,NA,NA,flower,target,89,11,0.89,NA,2,NA,0,NA,0,1780,1360,2200,-3,all
3_3_casillas_tseltal_2015_22,7,3,casillas_tseltal_2015,22,balti,NA,NA,NA,bucket,distractor,50,34,0.5952380952380952,NA,1,1,NA,890,1,2000,2000,2000,-3,all
3_3_casillas_tseltal_2015_22,8,3,casillas_tseltal_2015,22,mut,NA,NA,NA,chicken,target,106,0,1,NA,1,NA,1,NA,0,4240,4240,4240,-3,all
3_3_casillas_tseltal_2015_22,9,3,casillas_tseltal_2015,22,k'ajk',NA,NA,NA,fire,target,10,93,0.0970873786407767,NA,NA,NA,0,NA,0,NA,240,NA,-3,all
3_3_casillas_tseltal_2015_22,10,3,casillas_tseltal_2015,22,mexa,NA,NA,NA,table,target,106,0,1,NA,1,NA,1,NA,0,4240,4240,4240,-3,all
3_3_casillas_tseltal_2015_22,11,3,casillas_tseltal_2015,22,xawin,NA,NA,NA,cat,distractor,34,69,0.3300970873786408,NA,1,0,NA,NA,1,1360,1360,1360,-3,all
3_3_casillas_tseltal_2015_22,12,3,casillas_tseltal_2015,22,ja',NA,NA,NA,water,target,98,0,1,NA,2,NA,1,NA,0,1960,2000,2000,-3,all
3_3_casillas_tseltal_2015_22,13,3,casillas_tseltal_2015,22,ixim,NA,NA,NA,corn,distractor,61,43,0.5865384615384616,NA,1,1,NA,1140,1,2440,2440,2440,-3,all
3_3_casillas_tseltal_2015_22,14,3,casillas_tseltal_2015,22,karo,NA,NA,NA,car,target,106,0,1,NA,1,NA,1,NA,0,4240,4240,4240,-3,all
3_3_casillas_tseltal_2015_22,15,3,casillas_tseltal_2015,22,na,NA,NA,NA,house,distractor,0,106,0,NA,NA,0,NA,NA,0,NA,NA,NA,-3,all
3_3_casillas_tseltal_2015_22,16,3,casillas_tseltal_2015,22,te,NA,NA,NA,tree,distractor,0,106,0,NA,NA,0,NA,NA,0,NA,NA,NA,-3,all
3_3_casillas_tseltal_2015_22,17,3,casillas_tseltal_2015,22,waybal,NA,NA,NA,bed,distractor,63,39,0.6176470588235294,NA,1,1,NA,490,2,2520,2520,2520,-3,all
3_3_casillas_tseltal_2015_22,19,3,casillas_tseltal_2015,22,lo'bal,NA,NA,NA,banana,distractor,22,80,0.21568627450980393,NA,1,0,NA,NA,1,880,880,880,-3,all
3_3_casillas_tseltal_2015_22,20,3,casillas_tseltal_2015,22,chenek',NA,NA,NA,bean,distractor,87,18,0.8285714285714286,NA,1,1,NA,490,1,3480,3480,3480,-3,all
3_3_casillas_tseltal_2015_22,21,3,casillas_tseltal_2015,22,tz'i,NA,NA,NA,dog,distractor,39,66,0.37142857142857144,NA,1,0,NA,NA,1,1560,1560,1560,-3,all
3_3_casillas_tseltal_2015_22,22,3,casillas_tseltal_2015,22,tomut,NA,NA,NA,egg,target,24,73,0.24742268041237114,NA,1,NA,0,NA,2,640,320,640,-3,all
3_3_casillas_tseltal_2015_22,23,3,casillas_tseltal_2015,22,p'in,NA,NA,NA,pot-tseltal,distractor,36,66,0.35294117647058826,NA,1,0,NA,NA,1,1440,1440,1440,-3,all
3_3_casillas_tseltal_2015_22,24,3,casillas_tseltal_2015,22,tzek',NA,NA,NA,skirt-tseltal,distractor,4,99,0.038834951456310676,NA,NA,0,NA,NA,0,NA,NA,NA,-3,all
3_3_casillas_tseltal_2015_22,25,3,casillas_tseltal_2015,22,ich,NA,NA,NA,chile,target,106,0,1,NA,1,NA,1,NA,0,4240,4240,4240,-3,all
3_3_casillas_tseltal_2015_22,26,3,casillas_tseltal_2015,22,xila,NA,NA,NA,chair,target,106,0,1,NA,1,NA,1,NA,0,4240,4240,4240,-3,all
3_3_casillas_tseltal_2015_22,27,3,casillas_tseltal_2015,22,mes,NA,NA,NA,broom,distractor,88,2,0.9777777777777777,NA,1,1,NA,465,0,3520,3520,3520,-3,all
3_3_casillas_tseltal_2015_22,28,3,casillas_tseltal_2015,22,machit,NA,NA,NA,machete,distractor,15,90,0.14285714285714285,NA,1,0,NA,NA,1,600,600,600,-3,all
3_3_casillas_tseltal_2015_22,30,3,casillas_tseltal_2015,22,bojch,NA,NA,NA,bowl-tseltal,target,68,35,0.6601941747572816,NA,2,NA,0,NA,3,1360,640,2080,-3,all
4_4_casillas_tseltal_2015_45,1,4,casillas_tseltal_2015,45,wa,NA,NA,NA,tortilla,distractor,0,106,0,NA,NA,0,NA,NA,0,NA,NA,NA,20,all
4_4_casillas_tseltal_2015_45,2,4,casillas_tseltal_2015,45,moch,NA,NA,NA,basket-tseltal,distractor,84,21,0.8,NA,1,1,NA,565,1,3360,3360,3360,20,all
4_4_casillas_tseltal_2015_45,3,4,casillas_tseltal_2015,45,pelota,NA,NA,NA,ball,target,37,61,0.37755102040816324,NA,2,NA,0,NA,1,740,760,760,20,all
4_4_casillas_tseltal_2015_45,4,4,casillas_tseltal_2015,45,chojak',NA,NA,NA,purse-tseltal,distractor,29,71,0.29,NA,1,1,NA,365,1,1160,1160,1160,20,all
4_4_casillas_tseltal_2015_45,5,4,casillas_tseltal_2015,45,baso,NA,NA,NA,cup,distractor,98,6,0.9423076923076923,NA,1,1,NA,215,0,3920,3920,3920,20,all
4_4_casillas_tseltal_2015_45,6,4,casillas_tseltal_2015,45,nichim,NA,NA,NA,flower,target,70,29,0.7070707070707071,NA,2,NA,0,NA,3,1400,560,2240,20,all
4_4_casillas_tseltal_2015_45,7,4,casillas_tseltal_2015,45,balti,NA,NA,NA,bucket,distractor,56,47,0.5436893203883495,NA,1,1,NA,340,1,2240,2240,2240,20,all
4_4_casillas_tseltal_2015_45,8,4,casillas_tseltal_2015,45,mut,NA,NA,NA,chicken,distractor,53,38,0.5824175824175825,NA,2,1,NA,540,2,1060,640,1480,20,all
4_4_casillas_tseltal_2015_45,9,4,casillas_tseltal_2015,45,k'ajk',NA,NA,NA,fire,distractor,67,29,0.6979166666666666,NA,1,1,NA,290,1,2680,2680,2680,20,all
4_4_casillas_tseltal_2015_45,10,4,casillas_tseltal_2015,45,mexa,NA,NA,NA,table,distractor,101,3,0.9711538461538461,NA,1,1,NA,140,0,4040,4040,4040,20,all
4_4_casillas_tseltal_2015_45,11,4,casillas_tseltal_2015,45,xawin,NA,NA,NA,cat,distractor,44,58,0.43137254901960786,NA,1,1,NA,265,1,1760,1760,1760,20,all
4_4_casillas_tseltal_2015_45,12,4,casillas_tseltal_2015,45,ja',NA,NA,NA,water,target,42,63,0.4,NA,1,NA,0,NA,1,1680,1680,1680,20,all
4_4_casillas_tseltal_2015_45,14,4,casillas_tseltal_2015,45,karo,NA,NA,NA,car,target,90,0,1,NA,1,NA,1,NA,0,3400,3400,3400,20,all
4_4_casillas_tseltal_2015_45,15,4,casillas_tseltal_2015,45,na,NA,NA,NA,house,target,87,10,0.8969072164948454,NA,1,NA,0,NA,0,2880,400,2880,20,all
4_4_casillas_tseltal_2015_45,16,4,casillas_tseltal_2015,45,te,NA,NA,NA,tree,distractor,65,24,0.7303370786516854,NA,1,1,NA,665,1,2600,2600,2600,20,all
4_4_casillas_tseltal_2015_45,17,4,casillas_tseltal_2015,45,waybal,NA,NA,NA,bed,distractor,85,19,0.8173076923076923,NA,1,1,NA,540,1,3400,3400,3400,20,all
4_4_casillas_tseltal_2015_45,18,4,casillas_tseltal_2015,45,t'inel,NA,NA,NA,doorway,distractor,11,90,0.10891089108910891,NA,NA,1,NA,865,0,NA,440,NA,20,all
4_4_casillas_tseltal_2015_45,19,4,casillas_tseltal_2015,45,lo'bal,NA,NA,NA,banana,distractor,76,24,0.76,NA,2,1,NA,490,1,1520,2000,2000,20,all
4_4_casillas_tseltal_2015_45,20,4,casillas_tseltal_2015,45,chenek',NA,NA,NA,bean,distractor,51,50,0.504950495049505,NA,1,1,NA,415,2,2040,2040,2040,20,all
4_4_casillas_tseltal_2015_45,21,4,casillas_tseltal_2015,45,tz'i,NA,NA,NA,dog,target,70,30,0.7,NA,2,NA,0,NA,2,1400,1840,1840,20,all
4_4_casillas_tseltal_2015_45,22,4,casillas_tseltal_2015,45,tomut,NA,NA,NA,egg,distractor,72,31,0.6990291262135923,NA,1,1,NA,165,1,2880,2880,2880,20,all
4_4_casillas_tseltal_2015_45,23,4,casillas_tseltal_2015,45,p'in,NA,NA,NA,pot-tseltal,distractor,68,30,0.6938775510204082,NA,2,1,NA,415,3,1360,1920,1920,20,all
4_4_casillas_tseltal_2015_45,24,4,casillas_tseltal_2015,45,tzek',NA,NA,NA,skirt-tseltal,distractor,64,37,0.6336633663366337,NA,1,1,NA,665,2,2560,2560,2560,20,all
4_4_casillas_tseltal_2015_45,25,4,casillas_tseltal_2015,45,ich,NA,NA,NA,chile,target,83,21,0.7980769230769231,NA,1,NA,1,NA,1,3320,3320,3320,20,all
4_4_casillas_tseltal_2015_45,26,4,casillas_tseltal_2015,45,xila,NA,NA,NA,chair,target,32,72,0.3076923076923077,NA,1,NA,0,NA,1,1280,1280,1280,20,all
4_4_casillas_tseltal_2015_45,27,4,casillas_tseltal_2015,45,mes,NA,NA,NA,broom,distractor,72,31,0.6990291262135923,NA,1,1,NA,365,2,2880,2880,2880,20,all
4_4_casillas_tseltal_2015_45,28,4,casillas_tseltal_2015,45,machit,NA,NA,NA,machete,target,22,82,0.21153846153846154,NA,1,NA,0,NA,1,880,880,880,20,all
4_4_casillas_tseltal_2015_45,29,4,casillas_tseltal_2015,45,si',NA,NA,NA,firewood,target,96,8,0.9230769230769231,NA,1,NA,1,NA,0,3840,3840,3840,20,all
4_4_casillas_tseltal_2015_45,30,4,casillas_tseltal_2015,45,bojch,NA,NA,NA,bowl-tseltal,distractor,78,22,0.78,NA,1,1,NA,615,1,3120,3120,3120,20,all
5_5_casillas_tseltal_2015_27,1,5,casillas_tseltal_2015,27,wa,NA,NA,NA,tortilla,target,106,0,1,NA,1,NA,1,NA,0,4240,4240,4240,2,all
5_5_casillas_tseltal_2015_27,2,5,casillas_tseltal_2015,27,moch,NA,NA,NA,basket-tseltal,target,50,53,0.4854368932038835,NA,2,NA,0,NA,2,1000,1480,1480,2,all
5_5_casillas_tseltal_2015_27,3,5,casillas_tseltal_2015,27,pelota,NA,NA,NA,ball,target,106,0,1,NA,1,NA,1,NA,0,4240,4240,4240,2,all
5_5_casillas_tseltal_2015_27,4,5,casillas_tseltal_2015,27,chojak',NA,NA,NA,purse-tseltal,distractor,21,81,0.20588235294117646,NA,1,1,NA,815,2,840,840,840,2,all
5_5_casillas_tseltal_2015_27,5,5,casillas_tseltal_2015,27,baso,NA,NA,NA,cup,distractor,66,38,0.6346153846153846,NA,1,1,NA,490,2,2640,2640,2640,2,all
5_5_casillas_tseltal_2015_27,6,5,casillas_tseltal_2015,27,nichim,NA,NA,NA,flower,target,79,24,0.7669902912621359,NA,2,NA,0,NA,2,1580,1720,1720,2,all
5_5_casillas_tseltal_2015_27,7,5,casillas_tseltal_2015,27,balti,NA,NA,NA,bucket,distractor,89,15,0.8557692307692307,NA,2,1,NA,15,2,1780,1160,2400,2,all
5_5_casillas_tseltal_2015_27,8,5,casillas_tseltal_2015,27,mut,NA,NA,NA,chicken,distractor,93,11,0.8942307692307693,NA,1,1,NA,340,0,3720,3720,3720,2,all
5_5_casillas_tseltal_2015_27,9,5,casillas_tseltal_2015,27,k'ajk',NA,NA,NA,fire,distractor,66,29,0.6947368421052632,NA,2,1,NA,340,3,1320,1800,1800,2,all
5_5_casillas_tseltal_2015_27,10,5,casillas_tseltal_2015,27,mexa,NA,NA,NA,table,distractor,61,40,0.6039603960396039,NA,1,1,NA,415,2,2440,2440,2440,2,all
5_5_casillas_tseltal_2015_27,11,5,casillas_tseltal_2015,27,xawin,NA,NA,NA,cat,target,41,61,0.4019607843137255,NA,1,NA,0,NA,1,1480,1480,1480,2,all
5_5_casillas_tseltal_2015_27,12,5,casillas_tseltal_2015,27,ja',NA,NA,NA,water,target,106,0,1,NA,1,NA,1,NA,0,4240,4240,4240,2,all
5_5_casillas_tseltal_2015_27,13,5,casillas_tseltal_2015,27,ixim,NA,NA,NA,corn,target,26,76,0.2549019607843137,NA,1,NA,0,NA,1,1040,1040,1040,2,all
5_5_casillas_tseltal_2015_27,14,5,casillas_tseltal_2015,27,karo,NA,NA,NA,car,target,82,23,0.780952380952381,NA,1,NA,1,NA,1,3280,3280,3280,2,all
5_5_casillas_tseltal_2015_27,15,5,casillas_tseltal_2015,27,na,NA,NA,NA,house,target,53,52,0.5047619047619047,NA,1,NA,0,NA,1,2120,2120,2120,2,all
5_5_casillas_tseltal_2015_27,16,5,casillas_tseltal_2015,27,te,NA,NA,NA,tree,distractor,0,106,0,NA,NA,0,NA,NA,0,NA,NA,NA,2,all
5_5_casillas_tseltal_2015_27,17,5,casillas_tseltal_2015,27,waybal,NA,NA,NA,bed,target,37,68,0.3523809523809524,NA,1,NA,0,NA,1,1480,1480,1480,2,all
5_5_casillas_tseltal_2015_27,18,5,casillas_tseltal_2015,27,t'inel,NA,NA,NA,doorway,distractor,26,72,0.2653061224489796,NA,1,1,NA,365,1,1040,1040,1040,2,all
5_5_casillas_tseltal_2015_27,19,5,casillas_tseltal_2015,27,lo'bal,NA,NA,NA,banana,distractor,98,6,0.9423076923076923,NA,1,1,NA,215,0,3920,3920,3920,2,all
5_5_casillas_tseltal_2015_27,20,5,casillas_tseltal_2015,27,chenek',NA,NA,NA,bean,distractor,39,66,0.37142857142857144,NA,1,0,NA,NA,1,1560,1560,1560,2,all
5_5_casillas_tseltal_2015_27,21,5,casillas_tseltal_2015,27,tz'i,NA,NA,NA,dog,distractor,82,19,0.8118811881188119,NA,1,1,NA,215,1,3280,3280,3280,2,all
5_5_casillas_tseltal_2015_27,22,5,casillas_tseltal_2015,27,tomut,NA,NA,NA,egg,distractor,40,63,0.3883495145631068,NA,1,1,NA,740,2,1600,1600,1600,2,all
5_5_casillas_tseltal_2015_27,23,5,casillas_tseltal_2015,27,p'in,NA,NA,NA,pot-tseltal,distractor,20,82,0.19607843137254902,NA,1,0,NA,NA,1,640,640,640,2,all
5_5_casillas_tseltal_2015_27,24,5,casillas_tseltal_2015,27,tzek',NA,NA,NA,skirt-tseltal,target,45,57,0.4411764705882353,NA,2,NA,0,NA,3,900,840,960,2,all
5_5_casillas_tseltal_2015_27,25,5,casillas_tseltal_2015,27,ich,NA,NA,NA,chile,target,58,45,0.5631067961165048,NA,2,NA,0,NA,2,1160,1680,1680,2,all
5_5_casillas_tseltal_2015_27,26,5,casillas_tseltal_2015,27,xila,NA,NA,NA,chair,distractor,34,62,0.3541666666666667,NA,1,0,NA,NA,1,1360,1360,1360,2,all
5_5_casillas_tseltal_2015_27,27,5,casillas_tseltal_2015,27,mes,NA,NA,NA,broom,target,66,39,0.6285714285714286,NA,1,NA,1,NA,1,2640,2640,2640,2,all
5_5_casillas_tseltal_2015_27,28,5,casillas_tseltal_2015,27,machit,NA,NA,NA,machete,distractor,12,90,0.11764705882352941,NA,NA,0,NA,NA,0,NA,400,NA,2,all
5_5_casillas_tseltal_2015_27,29,5,casillas_tseltal_2015,27,si',NA,NA,NA,firewood,target,46,41,0.5287356321839081,NA,2,NA,0,NA,2,920,1200,1200,2,all
5_5_casillas_tseltal_2015_27,30,5,casillas_tseltal_2015,27,bojch,NA,NA,NA,bowl-tseltal,distractor,20,74,0.2127659574468085,NA,1,1,NA,565,2,800,800,800,2,all
6_6_casillas_tseltal_2015_39,1,6,casillas_tseltal_2015,39,wa,NA,NA,NA,tortilla,target,95,0,1,NA,1,NA,1,NA,0,3680,3680,3680,14,all
6_6_casillas_tseltal_2015_39,2,6,casillas_tseltal_2015,39,moch,NA,NA,NA,basket-tseltal,target,103,0,1,NA,2,NA,1,NA,0,2060,2240,2240,14,all
6_6_casillas_tseltal_2015_39,3,6,casillas_tseltal_2015,39,pelota,NA,NA,NA,ball,target,106,0,1,NA,1,NA,1,NA,0,4240,4240,4240,14,all
6_6_casillas_tseltal_2015_39,4,6,casillas_tseltal_2015,39,chojak',NA,NA,NA,purse-tseltal,distractor,45,58,0.4368932038834951,NA,1,1,NA,615,2,1800,1800,1800,14,all
6_6_casillas_tseltal_2015_39,5,6,casillas_tseltal_2015,39,baso,NA,NA,NA,cup,distractor,67,35,0.6568627450980392,NA,1,1,NA,540,2,2680,2680,2680,14,all
6_6_casillas_tseltal_2015_39,6,6,casillas_tseltal_2015,39,nichim,NA,NA,NA,flower,distractor,93,11,0.8942307692307693,NA,1,1,NA,340,0,3720,3720,3720,14,all
6_6_casillas_tseltal_2015_39,7,6,casillas_tseltal_2015,39,balti,NA,NA,NA,bucket,target,98,5,0.9514563106796117,NA,1,NA,1,NA,0,3920,3920,3920,14,all
6_6_casillas_tseltal_2015_39,8,6,casillas_tseltal_2015,39,mut,NA,NA,NA,chicken,target,106,0,1,NA,1,NA,1,NA,0,4240,4240,4240,14,all
6_6_casillas_tseltal_2015_39,9,6,casillas_tseltal_2015,39,k'ajk',NA,NA,NA,fire,target,106,0,1,NA,1,NA,1,NA,0,4240,4240,4240,14,all
6_6_casillas_tseltal_2015_39,10,6,casillas_tseltal_2015,39,mexa,NA,NA,NA,table,distractor,82,22,0.7884615384615384,NA,1,1,NA,615,1,3280,3280,3280,14,all
6_6_casillas_tseltal_2015_39,11,6,casillas_tseltal_2015,39,xawin,NA,NA,NA,cat,distractor,101,3,0.9711538461538461,NA,1,1,NA,140,0,4040,4040,4040,14,all
6_6_casillas_tseltal_2015_39,12,6,casillas_tseltal_2015,39,ja',NA,NA,NA,water,target,51,53,0.49038461538461536,NA,1,NA,0,NA,1,2040,2040,2040,14,all
6_6_casillas_tseltal_2015_39,13,6,casillas_tseltal_2015,39,ixim,NA,NA,NA,corn,target,106,0,1,NA,1,NA,1,NA,0,4240,4240,4240,14,all
6_6_casillas_tseltal_2015_39,14,6,casillas_tseltal_2015,39,karo,NA,NA,NA,car,distractor,87,18,0.8285714285714286,NA,1,1,NA,490,1,3480,3480,3480,14,all
6_6_casillas_tseltal_2015_39,15,6,casillas_tseltal_2015,39,na,NA,NA,NA,house,target,13,92,0.12380952380952381,NA,1,NA,0,NA,1,520,520,520,14,all
6_6_casillas_tseltal_2015_39,16,6,casillas_tseltal_2015,39,te,NA,NA,NA,tree,distractor,74,29,0.7184466019417476,NA,1,1,NA,815,1,2960,2960,2960,14,all
6_6_casillas_tseltal_2015_39,17,6,casillas_tseltal_2015,39,waybal,NA,NA,NA,bed,distractor,77,29,0.7264150943396226,NA,1,1,NA,740,1,3080,3080,3080,14,all
6_6_casillas_tseltal_2015_39,18,6,casillas_tseltal_2015,39,t'inel,NA,NA,NA,doorway,distractor,7,96,0.06796116504854369,NA,NA,0,NA,NA,0,NA,280,NA,14,all
6_6_casillas_tseltal_2015_39,19,6,casillas_tseltal_2015,39,lo'bal,NA,NA,NA,banana,target,106,0,1,NA,1,NA,1,NA,0,4240,4240,4240,14,all
6_6_casillas_tseltal_2015_39,20,6,casillas_tseltal_2015,39,chenek',NA,NA,NA,bean,distractor,69,35,0.6634615384615384,NA,1,1,NA,940,1,2760,2760,2760,14,all
6_6_casillas_tseltal_2015_39,21,6,casillas_tseltal_2015,39,tz'i,NA,NA,NA,dog,target,63,34,0.6494845360824743,NA,2,NA,0,NA,2,1260,1480,1480,14,all
6_6_casillas_tseltal_2015_39,22,6,casillas_tseltal_2015,39,tomut,NA,NA,NA,egg,distractor,79,24,0.7669902912621359,NA,1,1,NA,690,1,3160,3160,3160,14,all
6_6_casillas_tseltal_2015_39,23,6,casillas_tseltal_2015,39,p'in,NA,NA,NA,pot-tseltal,distractor,98,6,0.9423076923076923,NA,1,1,NA,215,0,3920,3920,3920,14,all
6_6_casillas_tseltal_2015_39,24,6,casillas_tseltal_2015,39,tzek',NA,NA,NA,skirt-tseltal,distractor,79,26,0.7523809523809524,NA,1,1,NA,690,1,3160,3160,3160,14,all
6_6_casillas_tseltal_2015_39,25,6,casillas_tseltal_2015,39,ich,NA,NA,NA,chile,distractor,101,3,0.9711538461538461,NA,1,1,NA,140,0,4040,4040,4040,14,all
6_6_casillas_tseltal_2015_39,26,6,casillas_tseltal_2015,39,xila,NA,NA,NA,chair,target,102,0,1,NA,2,NA,1,NA,0,2040,3440,3440,14,all
6_6_casillas_tseltal_2015_39,27,6,casillas_tseltal_2015,39,mes,NA,NA,NA,broom,target,106,0,1,NA,1,NA,1,NA,0,4240,4240,4240,14,all
6_6_casillas_tseltal_2015_39,28,6,casillas_tseltal_2015,39,machit,NA,NA,NA,machete,distractor,24,80,0.23076923076923078,NA,1,0,NA,NA,1,960,960,960,14,all
6_6_casillas_tseltal_2015_39,29,6,casillas_tseltal_2015,39,si',NA,NA,NA,firewood,distractor,72,32,0.6923076923076923,NA,1,1,NA,865,1,2880,2880,2880,14,all
6_6_casillas_tseltal_2015_39,30,6,casillas_tseltal_2015,39,bojch,NA,NA,NA,bowl-tseltal,distractor,71,34,0.6761904761904762,NA,1,1,NA,890,1,2840,2840,2840,14,all
7_7_casillas_tseltal_2015_25,1,7,casillas_tseltal_2015,25,wa,NA,NA,NA,tortilla,distractor,0,87,0,NA,NA,0,NA,NA,0,NA,NA,NA,0,all
7_7_casillas_tseltal_2015_25,2,7,casillas_tseltal_2015,25,moch,NA,NA,NA,basket-tseltal,distractor,0,106,0,NA,NA,0,NA,NA,0,NA,NA,NA,0,all
7_7_casillas_tseltal_2015_25,3,7,casillas_tseltal_2015,25,pelota,NA,NA,NA,ball,distractor,0,104,0,NA,NA,0,NA,NA,0,NA,NA,NA,0,all
7_7_casillas_tseltal_2015_25,4,7,casillas_tseltal_2015,25,chojak',NA,NA,NA,purse-tseltal,distractor,0,106,0,NA,NA,0,NA,NA,0,NA,NA,NA,0,all
7_7_casillas_tseltal_2015_25,5,7,casillas_tseltal_2015,25,baso,NA,NA,NA,cup,target,106,0,1,NA,1,NA,1,NA,0,4240,4240,4240,0,all
7_7_casillas_tseltal_2015_25,6,7,casillas_tseltal_2015,25,nichim,NA,NA,NA,flower,target,106,0,1,NA,1,NA,1,NA,0,4240,4240,4240,0,all
7_7_casillas_tseltal_2015_25,7,7,casillas_tseltal_2015,25,balti,NA,NA,NA,bucket,distractor,0,106,0,NA,NA,0,NA,NA,0,NA,NA,NA,0,all
7_7_casillas_tseltal_2015_25,8,7,casillas_tseltal_2015,25,mut,NA,NA,NA,chicken,distractor,56,48,0.5384615384615384,NA,1,1,NA,1265,1,2240,2240,2240,0,all
7_7_casillas_tseltal_2015_25,9,7,casillas_tseltal_2015,25,k'ajk',NA,NA,NA,fire,distractor,0,106,0,NA,NA,0,NA,NA,0,NA,NA,NA,0,all
7_7_casillas_tseltal_2015_25,10,7,casillas_tseltal_2015,25,mexa,NA,NA,NA,table,target,85,21,0.8018867924528302,NA,1,NA,1,NA,1,3400,3400,3400,0,all
7_7_casillas_tseltal_2015_25,11,7,casillas_tseltal_2015,25,xawin,NA,NA,NA,cat,target,106,0,1,NA,1,NA,1,NA,0,4240,4240,4240,0,all
7_7_casillas_tseltal_2015_25,12,7,casillas_tseltal_2015,25,ja',NA,NA,NA,water,target,106,0,1,NA,1,NA,1,NA,0,4240,4240,4240,0,all
7_7_casillas_tseltal_2015_25,13,7,casillas_tseltal_2015,25,ixim,NA,NA,NA,corn,target,106,0,1,NA,1,NA,1,NA,0,4240,4240,4240,0,all
7_7_casillas_tseltal_2015_25,14,7,casillas_tseltal_2015,25,karo,NA,NA,NA,car,target,106,0,1,NA,1,NA,1,NA,0,4240,4240,4240,0,all
7_7_casillas_tseltal_2015_25,15,7,casillas_tseltal_2015,25,na,NA,NA,NA,house,distractor,0,106,0,NA,NA,0,NA,NA,0,NA,NA,NA,0,all
7_7_casillas_tseltal_2015_25,16,7,casillas_tseltal_2015,25,te,NA,NA,NA,tree,distractor,0,55,0,NA,NA,0,NA,NA,0,NA,NA,NA,0,all
7_7_casillas_tseltal_2015_25,17,7,casillas_tseltal_2015,25,waybal,NA,NA,NA,bed,target,106,0,1,NA,1,NA,1,NA,0,4240,4240,4240,0,all
7_7_casillas_tseltal_2015_25,18,7,casillas_tseltal_2015,25,t'inel,NA,NA,NA,doorway,target,99,0,1,NA,1,NA,1,NA,0,3960,3960,3960,0,all
7_7_casillas_tseltal_2015_25,19,7,casillas_tseltal_2015,25,lo'bal,NA,NA,NA,banana,neither,50,26,0.6578947368421053,NA,1,NA,NA,NA,1,2000,2000,2000,0,all
7_7_casillas_tseltal_2015_25,20,7,casillas_tseltal_2015,25,chenek',NA,NA,NA,bean,distractor,0,106,0,NA,NA,0,NA,NA,0,NA,NA,NA,0,all
7_7_casillas_tseltal_2015_25,21,7,casillas_tseltal_2015,25,tz'i,NA,NA,NA,dog,target,106,0,1,NA,1,NA,1,NA,0,4240,4240,4240,0,all
7_7_casillas_tseltal_2015_25,22,7,casillas_tseltal_2015,25,tomut,NA,NA,NA,egg,distractor,32,72,0.3076923076923077,NA,1,0,NA,NA,1,1280,1280,1280,0,all
7_7_casillas_tseltal_2015_25,23,7,casillas_tseltal_2015,25,p'in,NA,NA,NA,pot-tseltal,target,3,101,0.028846153846153848,NA,NA,NA,0,NA,0,NA,NA,NA,0,all
7_7_casillas_tseltal_2015_25,24,7,casillas_tseltal_2015,25,tzek',NA,NA,NA,skirt-tseltal,target,103,0,1,NA,2,NA,1,NA,0,2060,3280,3280,0,all
7_7_casillas_tseltal_2015_25,25,7,casillas_tseltal_2015,25,ich,NA,NA,NA,chile,target,106,0,1,NA,1,NA,1,NA,0,4240,4240,4240,0,all
7_7_casillas_tseltal_2015_25,26,7,casillas_tseltal_2015,25,xila,NA,NA,NA,chair,target,106,0,1,NA,1,NA,1,NA,0,4240,4240,4240,0,all
7_7_casillas_tseltal_2015_25,27,7,casillas_tseltal_2015,25,mes,NA,NA,NA,broom,distractor,0,106,0,NA,NA,0,NA,NA,0,NA,NA,NA,0,all
7_7_casillas_tseltal_2015_25,28,7,casillas_tseltal_2015,25,machit,NA,NA,NA,machete,target,106,0,1,NA,1,NA,1,NA,0,4240,4240,4240,0,all
7_7_casillas_tseltal_2015_25,29,7,casillas_tseltal_2015,25,si',NA,NA,NA,firewood,target,106,0,1,NA,1,NA,1,NA,0,4240,4240,4240,0,all
7_7_casillas_tseltal_2015_25,30,7,casillas_tseltal_2015,25,bojch,NA,NA,NA,bowl-tseltal,target,106,0,1,NA,1,NA,1,NA,0,4240,4240,4240,0,all
8_8_casillas_tseltal_2015_14,1,8,casillas_tseltal_2015,14,wa,NA,NA,NA,tortilla,distractor,70,32,0.6862745098039216,NA,1,1,NA,815,1,2800,2800,2800,-11,all
8_8_casillas_tseltal_2015_14,2,8,casillas_tseltal_2015,14,moch,NA,NA,NA,basket-tseltal,target,40,62,0.39215686274509803,NA,1,NA,0,NA,1,1160,440,1160,-11,all
8_8_casillas_tseltal_2015_14,3,8,casillas_tseltal_2015,14,pelota,NA,NA,NA,ball,target,106,0,1,NA,1,NA,1,NA,0,4240,4240,4240,-11,all
8_8_casillas_tseltal_2015_14,4,8,casillas_tseltal_2015,14,chojak',NA,NA,NA,purse-tseltal,target,6,98,0.057692307692307696,NA,NA,NA,0,NA,0,NA,240,NA,-11,all
8_8_casillas_tseltal_2015_14,6,8,casillas_tseltal_2015,14,nichim,NA,NA,NA,flower,target,96,10,0.9056603773584906,NA,1,NA,1,NA,0,3840,3840,3840,-11,all
8_8_casillas_tseltal_2015_14,7,8,casillas_tseltal_2015,14,balti,NA,NA,NA,bucket,target,106,0,1,NA,1,NA,1,NA,0,4240,4240,4240,-11,all
8_8_casillas_tseltal_2015_14,8,8,casillas_tseltal_2015,14,mut,NA,NA,NA,chicken,distractor,27,77,0.25961538461538464,NA,1,1,NA,1290,2,1080,1080,1080,-11,all
8_8_casillas_tseltal_2015_14,9,8,casillas_tseltal_2015,14,k'ajk',NA,NA,NA,fire,target,106,0,1,NA,1,NA,1,NA,0,4240,4240,4240,-11,all
8_8_casillas_tseltal_2015_14,10,8,casillas_tseltal_2015,14,mexa,NA,NA,NA,table,distractor,0,106,0,NA,NA,0,NA,NA,0,NA,NA,NA,-11,all
8_8_casillas_tseltal_2015_14,11,8,casillas_tseltal_2015,14,xawin,NA,NA,NA,cat,target,106,0,1,NA,1,NA,1,NA,0,4240,4240,4240,-11,all
8_8_casillas_tseltal_2015_14,12,8,casillas_tseltal_2015,14,ja',NA,NA,NA,water,distractor,57,47,0.5480769230769231,NA,1,1,NA,665,2,2280,2280,2280,-11,all
8_8_casillas_tseltal_2015_14,13,8,casillas_tseltal_2015,14,ixim,NA,NA,NA,corn,target,44,61,0.41904761904761906,NA,2,NA,0,NA,2,880,840,920,-11,all
8_8_casillas_tseltal_2015_14,14,8,casillas_tseltal_2015,14,karo,NA,NA,NA,car,distractor,0,106,0,NA,NA,0,NA,NA,0,NA,NA,NA,-11,all
8_8_casillas_tseltal_2015_14,15,8,casillas_tseltal_2015,14,na,NA,NA,NA,house,distractor,16,87,0.1553398058252427,NA,1,1,NA,1065,2,640,640,640,-11,all
8_8_casillas_tseltal_2015_14,17,8,casillas_tseltal_2015,14,waybal,NA,NA,NA,bed,distractor,26,72,0.2653061224489796,NA,1,0,NA,NA,1,1040,1040,1040,-11,all
8_8_casillas_tseltal_2015_14,18,8,casillas_tseltal_2015,14,t'inel,NA,NA,NA,doorway,distractor,0,106,0,NA,NA,0,NA,NA,0,NA,NA,NA,-11,all
8_8_casillas_tseltal_2015_14,19,8,casillas_tseltal_2015,14,lo'bal,NA,NA,NA,banana,target,106,0,1,NA,1,NA,1,NA,0,4240,4240,4240,-11,all
8_8_casillas_tseltal_2015_14,21,8,casillas_tseltal_2015,14,tz'i,NA,NA,NA,dog,target,71,35,0.6698113207547169,NA,1,NA,1,NA,1,2440,2440,2440,-11,all
8_8_casillas_tseltal_2015_14,22,8,casillas_tseltal_2015,14,tomut,NA,NA,NA,egg,distractor,24,78,0.23529411764705882,NA,1,1,NA,1015,2,960,960,960,-11,all
8_8_casillas_tseltal_2015_14,23,8,casillas_tseltal_2015,14,p'in,NA,NA,NA,pot-tseltal,neither,50,40,0.5555555555555556,NA,1,NA,NA,NA,2,1720,280,1720,-11,all
8_8_casillas_tseltal_2015_14,24,8,casillas_tseltal_2015,14,tzek',NA,NA,NA,skirt-tseltal,distractor,0,106,0,NA,NA,0,NA,NA,0,NA,NA,NA,-11,all
8_8_casillas_tseltal_2015_14,25,8,casillas_tseltal_2015,14,ich,NA,NA,NA,chile,distractor,47,52,0.47474747474747475,NA,1,1,NA,1090,2,1800,1800,1800,-11,all
8_8_casillas_tseltal_2015_14,26,8,casillas_tseltal_2015,14,xila,NA,NA,NA,chair,distractor,0,106,0,NA,NA,0,NA,NA,0,NA,NA,NA,-11,all
8_8_casillas_tseltal_2015_14,27,8,casillas_tseltal_2015,14,mes,NA,NA,NA,broom,target,45,44,0.5056179775280899,NA,1,NA,0,NA,1,1800,1800,1800,-11,all
8_8_casillas_tseltal_2015_14,28,8,casillas_tseltal_2015,14,machit,NA,NA,NA,machete,distractor,0,106,0,NA,NA,0,NA,NA,0,NA,NA,NA,-11,all
8_8_casillas_tseltal_2015_14,29,8,casillas_tseltal_2015,14,si',NA,NA,NA,firewood,distractor,12,86,0.12244897959183673,NA,1,0,NA,NA,1,480,480,480,-11,all
8_8_casillas_tseltal_2015_14,30,8,casillas_tseltal_2015,14,bojch,NA,NA,NA,bowl-tseltal,target,106,0,1,NA,1,NA,1,NA,0,4240,4240,4240,-11,all
9_9_casillas_tseltal_2015_42,1,9,casillas_tseltal_2015,42,wa,NA,NA,NA,tortilla,target,106,0,1,NA,1,NA,1,NA,0,4240,4240,4240,17,all
9_9_casillas_tseltal_2015_42,2,9,casillas_tseltal_2015,42,moch,NA,NA,NA,basket-tseltal,target,77,28,0.7333333333333333,NA,1,NA,1,NA,1,3080,3080,3080,17,all
9_9_casillas_tseltal_2015_42,3,9,casillas_tseltal_2015,42,pelota,NA,NA,NA,ball,target,72,31,0.6990291262135923,NA,1,NA,1,NA,1,2880,2880,2880,17,all
9_9_casillas_tseltal_2015_42,4,9,casillas_tseltal_2015,42,chojak',NA,NA,NA,purse-tseltal,distractor,29,72,0.2871287128712871,NA,1,1,NA,415,2,1160,1160,1160,17,all
9_9_casillas_tseltal_2015_42,5,9,casillas_tseltal_2015,42,baso,NA,NA,NA,cup,distractor,56,44,0.56,NA,1,1,NA,615,2,2160,2160,2160,17,all
9_9_casillas_tseltal_2015_42,6,9,casillas_tseltal_2015,42,nichim,NA,NA,NA,flower,target,71,29,0.71,NA,2,NA,0,NA,2,1420,2000,2000,17,all
9_9_casillas_tseltal_2015_42,7,9,casillas_tseltal_2015,42,balti,NA,NA,NA,bucket,distractor,43,59,0.4215686274509804,NA,1,1,NA,615,2,1720,1720,1720,17,all
9_9_casillas_tseltal_2015_42,8,9,casillas_tseltal_2015,42,mut,NA,NA,NA,chicken,target,106,0,1,NA,1,NA,1,NA,0,4240,4240,4240,17,all
9_9_casillas_tseltal_2015_42,9,9,casillas_tseltal_2015,42,k'ajk',NA,NA,NA,fire,distractor,68,30,0.6938775510204082,NA,2,1,NA,165,2,1160,400,1720,17,all
9_9_casillas_tseltal_2015_42,10,9,casillas_tseltal_2015,42,mexa,NA,NA,NA,table,distractor,72,25,0.7422680412371134,NA,1,1,NA,365,1,2560,320,2560,17,all
9_9_casillas_tseltal_2015_42,11,9,casillas_tseltal_2015,42,xawin,NA,NA,NA,cat,target,72,29,0.7128712871287128,NA,1,NA,1,NA,1,2680,2680,2680,17,all
9_9_casillas_tseltal_2015_42,12,9,casillas_tseltal_2015,42,ja',NA,NA,NA,water,distractor,56,49,0.5333333333333333,NA,1,1,NA,565,2,2240,2240,2240,17,all
9_9_casillas_tseltal_2015_42,13,9,casillas_tseltal_2015,42,ixim,NA,NA,NA,corn,target,71,30,0.7029702970297029,NA,2,NA,0,NA,2,1420,760,2080,17,all
9_9_casillas_tseltal_2015_42,14,9,casillas_tseltal_2015,42,karo,NA,NA,NA,car,distractor,85,19,0.8173076923076923,NA,1,1,NA,540,1,3400,3400,3400,17,all
9_9_casillas_tseltal_2015_42,15,9,casillas_tseltal_2015,42,na,NA,NA,NA,house,distractor,25,71,0.2604166666666667,NA,1,1,NA,865,2,1000,1000,1000,17,all
9_9_casillas_tseltal_2015_42,16,9,casillas_tseltal_2015,42,te,NA,NA,NA,tree,target,39,63,0.38235294117647056,NA,1,NA,0,NA,1,1120,440,1120,17,all
9_9_casillas_tseltal_2015_42,17,9,casillas_tseltal_2015,42,waybal,NA,NA,NA,bed,target,11,92,0.10679611650485436,NA,NA,NA,0,NA,0,NA,440,NA,17,all
9_9_casillas_tseltal_2015_42,18,9,casillas_tseltal_2015,42,t'inel,NA,NA,NA,doorway,distractor,0,106,0,NA,NA,0,NA,NA,0,NA,NA,NA,17,all
9_9_casillas_tseltal_2015_42,19,9,casillas_tseltal_2015,42,lo'bal,NA,NA,NA,banana,target,71,32,0.6893203883495146,NA,2,NA,0,NA,2,1420,1600,1600,17,all
9_9_casillas_tseltal_2015_42,20,9,casillas_tseltal_2015,42,chenek',NA,NA,NA,bean,distractor,69,34,0.6699029126213593,NA,1,1,NA,365,2,2760,2760,2760,17,all
9_9_casillas_tseltal_2015_42,21,9,casillas_tseltal_2015,42,tz'i,NA,NA,NA,dog,target,106,0,1,NA,1,NA,1,NA,0,4240,4240,4240,17,all
9_9_casillas_tseltal_2015_42,22,9,casillas_tseltal_2015,42,tomut,NA,NA,NA,egg,target,69,35,0.6634615384615384,NA,1,NA,1,NA,1,2760,2760,2760,17,all
9_9_casillas_tseltal_2015_42,23,9,casillas_tseltal_2015,42,p'in,NA,NA,NA,pot-tseltal,distractor,27,76,0.2621359223300971,NA,1,1,NA,465,2,1080,1080,1080,17,all
9_9_casillas_tseltal_2015_42,24,9,casillas_tseltal_2015,42,tzek',NA,NA,NA,skirt-tseltal,distractor,71,34,0.6761904761904762,NA,1,1,NA,890,1,2840,2840,2840,17,all
9_9_casillas_tseltal_2015_42,25,9,casillas_tseltal_2015,42,ich,NA,NA,NA,chile,target,40,60,0.4,NA,1,NA,0,NA,1,1600,1600,1600,17,all
9_9_casillas_tseltal_2015_42,26,9,casillas_tseltal_2015,42,xila,NA,NA,NA,chair,target,67,37,0.6442307692307693,NA,1,NA,1,NA,1,2680,2680,2680,17,all
9_9_casillas_tseltal_2015_42,27,9,casillas_tseltal_2015,42,mes,NA,NA,NA,broom,target,72,30,0.7058823529411765,NA,2,NA,0,NA,2,1440,560,2320,17,all
9_9_casillas_tseltal_2015_42,28,9,casillas_tseltal_2015,42,machit,NA,NA,NA,machete,distractor,92,13,0.8761904761904762,NA,1,1,NA,365,1,3680,3680,3680,17,all
9_9_casillas_tseltal_2015_42,29,9,casillas_tseltal_2015,42,si',NA,NA,NA,firewood,target,38,64,0.37254901960784315,NA,1,NA,0,NA,1,1520,1520,1520,17,all
9_9_casillas_tseltal_2015_42,30,9,casillas_tseltal_2015,42,bojch,NA,NA,NA,bowl-tseltal,target,42,59,0.4158415841584158,NA,1,NA,0,NA,2,1480,200,1480,17,all
10_10_casillas_tseltal_2015_46,1,10,casillas_tseltal_2015,46,wa,NA,NA,NA,tortilla,target,86,12,0.8775510204081632,NA,2,NA,0,NA,2,1720,1840,1840,21,all
10_10_casillas_tseltal_2015_46,2,10,casillas_tseltal_2015,46,moch,NA,NA,NA,basket-tseltal,target,80,24,0.7692307692307693,NA,1,NA,1,NA,1,3200,3200,3200,21,all
10_10_casillas_tseltal_2015_46,3,10,casillas_tseltal_2015,46,pelota,NA,NA,NA,ball,target,88,6,0.9361702127659575,NA,1,NA,1,NA,0,3520,3520,3520,21,all
10_10_casillas_tseltal_2015_46,4,10,casillas_tseltal_2015,46,chojak',NA,NA,NA,purse-tseltal,distractor,93,10,0.9029126213592233,NA,1,1,NA,340,0,3720,3720,3720,21,all
10_10_casillas_tseltal_2015_46,5,10,casillas_tseltal_2015,46,baso,NA,NA,NA,cup,distractor,103,0,1,NA,1,1,NA,90,0,4120,4120,4120,21,all
10_10_casillas_tseltal_2015_46,6,10,casillas_tseltal_2015,46,nichim,NA,NA,NA,flower,target,106,0,1,NA,1,NA,1,NA,0,4240,4240,4240,21,all
10_10_casillas_tseltal_2015_46,7,10,casillas_tseltal_2015,46,balti,NA,NA,NA,bucket,distractor,84,21,0.8,NA,1,1,NA,565,1,3360,3360,3360,21,all
10_10_casillas_tseltal_2015_46,8,10,casillas_tseltal_2015,46,mut,NA,NA,NA,chicken,distractor,62,38,0.62,NA,1,1,NA,1065,1,2480,2480,2480,21,all
10_10_casillas_tseltal_2015_46,9,10,casillas_tseltal_2015,46,k'ajk',NA,NA,NA,fire,distractor,93,10,0.9029126213592233,NA,1,1,NA,340,0,3720,3720,3720,21,all
10_10_casillas_tseltal_2015_46,10,10,casillas_tseltal_2015,46,mexa,NA,NA,NA,table,distractor,95,10,0.9047619047619048,NA,1,1,NA,290,0,3800,3800,3800,21,all
10_10_casillas_tseltal_2015_46,11,10,casillas_tseltal_2015,46,xawin,NA,NA,NA,cat,distractor,85,19,0.8173076923076923,NA,1,1,NA,540,1,3400,3400,3400,21,all
10_10_casillas_tseltal_2015_46,12,10,casillas_tseltal_2015,46,ja',NA,NA,NA,water,distractor,61,42,0.5922330097087378,NA,1,1,NA,1140,1,2440,2440,2440,21,all
10_10_casillas_tseltal_2015_46,13,10,casillas_tseltal_2015,46,ixim,NA,NA,NA,corn,target,80,19,0.8080808080808081,NA,2,NA,0,NA,2,1600,1600,1600,21,all
10_10_casillas_tseltal_2015_46,14,10,casillas_tseltal_2015,46,karo,NA,NA,NA,car,target,106,0,1,NA,1,NA,1,NA,0,4240,4240,4240,21,all
10_10_casillas_tseltal_2015_46,15,10,casillas_tseltal_2015,46,na,NA,NA,NA,house,distractor,79,26,0.7523809523809524,NA,1,1,NA,690,1,3160,3160,3160,21,all
10_10_casillas_tseltal_2015_46,16,10,casillas_tseltal_2015,46,te,NA,NA,NA,tree,distractor,85,18,0.8252427184466019,NA,1,1,NA,540,1,3400,3400,3400,21,all
10_10_casillas_tseltal_2015_46,17,10,casillas_tseltal_2015,46,waybal,NA,NA,NA,bed,target,90,11,0.8910891089108911,NA,1,NA,0,NA,0,3280,320,3280,21,all
10_10_casillas_tseltal_2015_46,18,10,casillas_tseltal_2015,46,t'inel,NA,NA,NA,doorway,target,106,0,1,NA,1,NA,1,NA,0,4240,4240,4240,21,all
10_10_casillas_tseltal_2015_46,19,10,casillas_tseltal_2015,46,lo'bal,NA,NA,NA,banana,target,106,0,1,NA,1,NA,1,NA,0,4240,4240,4240,21,all
10_10_casillas_tseltal_2015_46,20,10,casillas_tseltal_2015,46,chenek',NA,NA,NA,bean,distractor,14,62,0.18421052631578946,NA,1,1,NA,1415,2,560,560,560,21,all
10_10_casillas_tseltal_2015_46,21,10,casillas_tseltal_2015,46,tz'i,NA,NA,NA,dog,distractor,82,21,0.7961165048543689,NA,1,1,NA,615,1,3280,3280,3280,21,all
10_10_casillas_tseltal_2015_46,22,10,casillas_tseltal_2015,46,tomut,NA,NA,NA,egg,distractor,47,56,0.4563106796116505,NA,1,0,NA,NA,1,1880,1880,1880,21,all
10_10_casillas_tseltal_2015_46,23,10,casillas_tseltal_2015,46,p'in,NA,NA,NA,pot-tseltal,distractor,87,18,0.8285714285714286,NA,1,1,NA,490,1,3480,3480,3480,21,all
10_10_casillas_tseltal_2015_46,24,10,casillas_tseltal_2015,46,tzek',NA,NA,NA,skirt-tseltal,target,52,50,0.5098039215686274,NA,2,NA,0,NA,2,1040,1480,1480,21,all
10_10_casillas_tseltal_2015_46,25,10,casillas_tseltal_2015,46,ich,NA,NA,NA,chile,distractor,84,19,0.8155339805825242,NA,1,1,NA,565,1,3360,3360,3360,21,all
10_10_casillas_tseltal_2015_46,26,10,casillas_tseltal_2015,46,xila,NA,NA,NA,chair,target,80,19,0.8080808080808081,NA,2,NA,0,NA,2,1600,2000,2000,21,all
10_10_casillas_tseltal_2015_46,27,10,casillas_tseltal_2015,46,mes,NA,NA,NA,broom,distractor,89,11,0.89,NA,1,1,NA,365,0,3360,3360,3360,21,all
10_10_casillas_tseltal_2015_46,28,10,casillas_tseltal_2015,46,machit,NA,NA,NA,machete,target,106,0,1,NA,1,NA,1,NA,0,4240,4240,4240,21,all
10_10_casillas_tseltal_2015_46,29,10,casillas_tseltal_2015,46,si',NA,NA,NA,firewood,target,106,0,1,NA,1,NA,1,NA,0,4240,4240,4240,21,all
10_10_casillas_tseltal_2015_46,30,10,casillas_tseltal_2015,46,bojch,NA,NA,NA,bowl-tseltal,distractor,68,37,0.6476190476190476,NA,1,1,NA,965,1,2720,2720,2720,21,all
12_12_casillas_tseltal_2015_16,1,12,casillas_tseltal_2015,16,lo'bal,NA,NA,NA,banana,target,106,0,1,NA,1,NA,1,NA,0,4240,4240,4240,-9,all
12_12_casillas_tseltal_2015_16,8,12,casillas_tseltal_2015,16,xila,NA,NA,NA,chair,target,106,0,1,NA,1,NA,1,NA,0,4240,4240,4240,-9,all
12_12_casillas_tseltal_2015_16,13,12,casillas_tseltal_2015,16,wa,NA,NA,NA,tortilla,distractor,31,69,0.31,NA,1,1,NA,1090,2,1240,1240,1240,-9,all
12_12_casillas_tseltal_2015_16,14,12,casillas_tseltal_2015,16,moch,NA,NA,NA,basket-tseltal,target,30,72,0.29411764705882354,NA,1,NA,0,NA,1,1120,1120,1120,-9,all
12_12_casillas_tseltal_2015_16,15,12,casillas_tseltal_2015,16,pelota,NA,NA,NA,ball,distractor,5,99,0.04807692307692308,NA,NA,0,NA,NA,0,NA,200,NA,-9,all
12_12_casillas_tseltal_2015_16,16,12,casillas_tseltal_2015,16,chojak',NA,NA,NA,purse-tseltal,target,35,69,0.33653846153846156,NA,1,NA,0,NA,1,1400,1400,1400,-9,all
12_12_casillas_tseltal_2015_16,17,12,casillas_tseltal_2015,16,baso,NA,NA,NA,cup,target,106,0,1,NA,1,NA,1,NA,0,4240,4240,4240,-9,all
12_12_casillas_tseltal_2015_16,18,12,casillas_tseltal_2015,16,nichim,NA,NA,NA,flower,target,19,85,0.18269230769230768,NA,1,NA,0,NA,1,760,760,760,-9,all
12_12_casillas_tseltal_2015_16,19,12,casillas_tseltal_2015,16,balti,NA,NA,NA,bucket,distractor,0,106,0,NA,NA,0,NA,NA,0,NA,NA,NA,-9,all
12_12_casillas_tseltal_2015_16,20,12,casillas_tseltal_2015,16,mut,NA,NA,NA,chicken,target,77,15,0.8369565217391305,NA,2,NA,1,NA,1,1540,2560,2560,-9,all
12_12_casillas_tseltal_2015_16,21,12,casillas_tseltal_2015,16,k'ajk',NA,NA,NA,fire,target,85,16,0.8415841584158416,NA,2,NA,1,NA,2,1700,2160,2160,-9,all
12_12_casillas_tseltal_2015_16,22,12,casillas_tseltal_2015,16,mexa,NA,NA,NA,table,target,70,27,0.7216494845360825,NA,2,NA,0,NA,2,1400,560,2240,-9,all
12_12_casillas_tseltal_2015_16,23,12,casillas_tseltal_2015,16,xawin,NA,NA,NA,cat,distractor,53,51,0.5096153846153846,NA,1,1,NA,1340,1,2120,2120,2120,-9,all
12_12_casillas_tseltal_2015_16,24,12,casillas_tseltal_2015,16,ja',NA,NA,NA,water,target,40,33,0.547945205479452,NA,1,NA,0,NA,1,1280,320,1280,-9,all
12_12_casillas_tseltal_2015_16,26,12,casillas_tseltal_2015,16,karo,NA,NA,NA,car,target,46,48,0.48936170212765956,NA,1,NA,0,NA,1,1840,1840,1840,-9,all
12_12_casillas_tseltal_2015_16,27,12,casillas_tseltal_2015,16,bojch,NA,NA,NA,bowl-tseltal,distractor,85,19,0.8173076923076923,NA,1,1,NA,540,1,3400,3400,3400,-9,all
12_12_casillas_tseltal_2015_16,28,12,casillas_tseltal_2015,16,na,NA,NA,NA,house,distractor,52,42,0.5531914893617021,NA,1,1,NA,90,1,1800,1800,1800,-9,all
12_12_casillas_tseltal_2015_16,29,12,casillas_tseltal_2015,16,te,NA,NA,NA,tree,distractor,56,0,1,NA,2,1,NA,90,0,1120,960,1280,-9,all
12_12_casillas_tseltal_2015_16,30,12,casillas_tseltal_2015,16,waybal,NA,NA,NA,bed,target,106,0,1,NA,1,NA,1,NA,0,4240,4240,4240,-9,all
12_12_casillas_tseltal_2015_16,31,12,casillas_tseltal_2015,16,t'inel,NA,NA,NA,doorway,target,51,53,0.49038461538461536,NA,1,NA,0,NA,1,2040,2040,2040,-9,all
12_12_casillas_tseltal_2015_16,32,12,casillas_tseltal_2015,16,chenek',NA,NA,NA,bean,target,106,0,1,NA,1,NA,1,NA,0,4240,4240,4240,-9,all
12_12_casillas_tseltal_2015_16,33,12,casillas_tseltal_2015,16,tz'i,NA,NA,NA,dog,distractor,0,106,0,NA,NA,0,NA,NA,0,NA,NA,NA,-9,all
12_12_casillas_tseltal_2015_16,34,12,casillas_tseltal_2015,16,tomut,NA,NA,NA,egg,target,82,23,0.780952380952381,NA,2,NA,0,NA,2,1640,520,2760,-9,all
12_12_casillas_tseltal_2015_16,35,12,casillas_tseltal_2015,16,p'in,NA,NA,NA,pot-tseltal,distractor,0,106,0,NA,NA,0,NA,NA,0,NA,NA,NA,-9,all
12_12_casillas_tseltal_2015_16,36,12,casillas_tseltal_2015,16,tzek',NA,NA,NA,skirt-tseltal,target,70,34,0.6730769230769231,NA,1,NA,1,NA,1,2800,2800,2800,-9,all
12_12_casillas_tseltal_2015_16,37,12,casillas_tseltal_2015,16,ich,NA,NA,NA,chile,target,51,44,0.5368421052631579,NA,1,NA,1,NA,1,2040,2040,2040,-9,all
12_12_casillas_tseltal_2015_16,38,12,casillas_tseltal_2015,16,mes,NA,NA,NA,broom,neither,19,83,0.18627450980392157,NA,1,NA,NA,NA,1,760,760,760,-9,all
12_12_casillas_tseltal_2015_16,39,12,casillas_tseltal_2015,16,machit,NA,NA,NA,machete,distractor,0,106,0,NA,NA,0,NA,NA,0,NA,NA,NA,-9,all
12_12_casillas_tseltal_2015_16,40,12,casillas_tseltal_2015,16,si',NA,NA,NA,firewood,target,106,0,1,NA,1,NA,1,NA,0,4240,4240,4240,-9,all
13_13_casillas_tseltal_2015_48,1,13,casillas_tseltal_2015,48,xila,NA,NA,NA,chair,target,106,0,1,NA,1,NA,1,NA,0,4240,4240,4240,23,all
13_13_casillas_tseltal_2015_48,6,13,casillas_tseltal_2015,48,wa,NA,NA,NA,tortilla,target,55,44,0.5555555555555556,NA,3,NA,0,NA,4,733.3333333333334,1080,1080,23,all
13_13_casillas_tseltal_2015_48,7,13,casillas_tseltal_2015,48,moch,NA,NA,NA,basket-tseltal,target,55,41,0.5729166666666666,NA,1,NA,0,NA,1,1880,320,1880,23,all
13_13_casillas_tseltal_2015_48,8,13,casillas_tseltal_2015,48,pelota,NA,NA,NA,ball,target,8,94,0.0784313725490196,NA,NA,NA,0,NA,0,NA,320,NA,23,all
13_13_casillas_tseltal_2015_48,9,13,casillas_tseltal_2015,48,chojak',NA,NA,NA,purse-tseltal,target,48,54,0.47058823529411764,NA,2,NA,0,NA,2,960,880,1040,23,all
13_13_casillas_tseltal_2015_48,10,13,casillas_tseltal_2015,48,baso,NA,NA,NA,cup,distractor,61,41,0.5980392156862745,NA,1,1,NA,940,1,2440,2440,2440,23,all
13_13_casillas_tseltal_2015_48,11,13,casillas_tseltal_2015,48,nichim,NA,NA,NA,flower,target,72,11,0.8674698795180723,NA,1,NA,0,NA,0,2880,2880,2880,23,all
13_13_casillas_tseltal_2015_48,12,13,casillas_tseltal_2015,48,balti,NA,NA,NA,bucket,target,43,59,0.4215686274509804,NA,2,NA,0,NA,3,860,640,1080,23,all
13_13_casillas_tseltal_2015_48,17,13,casillas_tseltal_2015,48,ja',NA,NA,NA,water,distractor,59,45,0.5673076923076923,NA,1,1,NA,15,1,2360,2360,2360,23,all
13_13_casillas_tseltal_2015_48,27,13,casillas_tseltal_2015,48,tomut,NA,NA,NA,egg,distractor,88,15,0.8543689320388349,NA,1,1,NA,365,1,3520,3520,3520,23,all
13_13_casillas_tseltal_2015_48,29,13,casillas_tseltal_2015,48,tzek',NA,NA,NA,skirt-tseltal,distractor,0,106,0,NA,NA,0,NA,NA,0,NA,NA,NA,23,all
13_13_casillas_tseltal_2015_48,30,13,casillas_tseltal_2015,48,ich,NA,NA,NA,chile,distractor,0,103,0,NA,NA,0,NA,NA,0,NA,NA,NA,23,all
13_13_casillas_tseltal_2015_48,31,13,casillas_tseltal_2015,48,mes,NA,NA,NA,broom,target,106,0,1,NA,1,NA,1,NA,0,4240,4240,4240,23,all
13_13_casillas_tseltal_2015_48,32,13,casillas_tseltal_2015,48,machit,NA,NA,NA,machete,distractor,69,35,0.6634615384615384,NA,1,1,NA,540,1,2520,240,2520,23,all
13_13_casillas_tseltal_2015_48,33,13,casillas_tseltal_2015,48,si',NA,NA,NA,firewood,target,29,77,0.27358490566037735,NA,1,NA,0,NA,1,720,440,720,23,all
14_14_casillas_tseltal_2015_29,1,14,casillas_tseltal_2015,29,lo'bal,NA,NA,NA,banana,distractor,45,56,0.44554455445544555,NA,1,1,NA,290,1,1400,1400,1400,4,all
14_14_casillas_tseltal_2015_29,8,14,casillas_tseltal_2015,29,xila,NA,NA,NA,chair,target,78,15,0.8387096774193549,NA,1,NA,1,NA,1,3120,3120,3120,4,all
14_14_casillas_tseltal_2015_29,13,14,casillas_tseltal_2015,29,wa,NA,NA,NA,tortilla,distractor,21,71,0.22826086956521738,NA,1,1,NA,540,2,640,640,640,4,all
14_14_casillas_tseltal_2015_29,14,14,casillas_tseltal_2015,29,moch,NA,NA,NA,basket-tseltal,target,106,0,1,NA,1,NA,1,NA,0,4240,4240,4240,4,all
14_14_casillas_tseltal_2015_29,15,14,casillas_tseltal_2015,29,pelota,NA,NA,NA,ball,target,75,26,0.7425742574257426,NA,2,NA,0,NA,2,1500,760,2240,4,all
14_14_casillas_tseltal_2015_29,16,14,casillas_tseltal_2015,29,chojak',NA,NA,NA,purse-tseltal,target,48,38,0.5581395348837209,NA,1,NA,0,NA,1,1920,1920,1920,4,all
14_14_casillas_tseltal_2015_29,17,14,casillas_tseltal_2015,29,baso,NA,NA,NA,cup,distractor,80,24,0.7692307692307693,NA,1,1,NA,665,1,3200,3200,3200,4,all
14_14_casillas_tseltal_2015_29,18,14,casillas_tseltal_2015,29,nichim,NA,NA,NA,flower,target,78,20,0.7959183673469388,NA,2,NA,0,NA,2,1560,1920,1920,4,all
14_14_casillas_tseltal_2015_29,19,14,casillas_tseltal_2015,29,balti,NA,NA,NA,bucket,target,106,0,1,NA,1,NA,1,NA,0,4240,4240,4240,4,all
14_14_casillas_tseltal_2015_29,20,14,casillas_tseltal_2015,29,mut,NA,NA,NA,chicken,target,43,57,0.43,NA,2,NA,0,NA,2,860,760,960,4,all
14_14_casillas_tseltal_2015_29,21,14,casillas_tseltal_2015,29,k'ajk',NA,NA,NA,fire,target,44,58,0.43137254901960786,NA,2,NA,0,NA,2,880,840,920,4,all
14_14_casillas_tseltal_2015_29,22,14,casillas_tseltal_2015,29,mexa,NA,NA,NA,table,target,29,76,0.2761904761904762,NA,1,NA,0,NA,1,1160,1160,1160,4,all
14_14_casillas_tseltal_2015_29,23,14,casillas_tseltal_2015,29,xawin,NA,NA,NA,cat,target,31,72,0.30097087378640774,NA,1,NA,0,NA,1,1160,1160,1160,4,all
14_14_casillas_tseltal_2015_29,24,14,casillas_tseltal_2015,29,ja',NA,NA,NA,water,distractor,97,5,0.9509803921568627,NA,1,1,NA,65,0,3880,3880,3880,4,all
14_14_casillas_tseltal_2015_29,25,14,casillas_tseltal_2015,29,ixim,NA,NA,NA,corn,target,63,40,0.6116504854368932,NA,2,NA,0,NA,2,1260,1280,1280,4,all
14_14_casillas_tseltal_2015_29,26,14,casillas_tseltal_2015,29,karo,NA,NA,NA,car,target,70,34,0.6730769230769231,NA,1,NA,1,NA,1,2800,2800,2800,4,all
14_14_casillas_tseltal_2015_29,27,14,casillas_tseltal_2015,29,bojch,NA,NA,NA,bowl-tseltal,distractor,29,70,0.29292929292929293,NA,1,1,NA,490,2,1080,1080,1080,4,all
14_14_casillas_tseltal_2015_29,28,14,casillas_tseltal_2015,29,na,NA,NA,NA,house,distractor,46,56,0.45098039215686275,NA,1,1,NA,465,2,1840,1840,1840,4,all
14_14_casillas_tseltal_2015_29,29,14,casillas_tseltal_2015,29,te,NA,NA,NA,tree,distractor,88,16,0.8461538461538461,NA,1,1,NA,465,1,3520,3520,3520,4,all
14_14_casillas_tseltal_2015_29,30,14,casillas_tseltal_2015,29,waybal,NA,NA,NA,bed,target,106,0,1,NA,1,NA,1,NA,0,4240,4240,4240,4,all
14_14_casillas_tseltal_2015_29,31,14,casillas_tseltal_2015,29,t'inel,NA,NA,NA,doorway,target,10,95,0.09523809523809523,NA,NA,NA,0,NA,0,NA,400,NA,4,all
14_14_casillas_tseltal_2015_29,32,14,casillas_tseltal_2015,29,chenek',NA,NA,NA,bean,neither,43,34,0.5584415584415584,NA,2,NA,NA,NA,3,860,720,1000,4,all
14_14_casillas_tseltal_2015_29,33,14,casillas_tseltal_2015,29,tz'i,NA,NA,NA,dog,distractor,77,22,0.7777777777777778,NA,2,1,NA,165,2,1540,2440,2440,4,all
14_14_casillas_tseltal_2015_29,34,14,casillas_tseltal_2015,29,tomut,NA,NA,NA,egg,target,40,61,0.39603960396039606,NA,1,NA,0,NA,1,1600,1600,1600,4,all
14_14_casillas_tseltal_2015_29,35,14,casillas_tseltal_2015,29,p'in,NA,NA,NA,pot-tseltal,distractor,18,85,0.17475728155339806,NA,1,1,NA,815,2,720,720,720,4,all
14_14_casillas_tseltal_2015_29,36,14,casillas_tseltal_2015,29,tzek',NA,NA,NA,skirt-tseltal,distractor,67,36,0.6504854368932039,NA,1,1,NA,665,2,2680,2680,2680,4,all
14_14_casillas_tseltal_2015_29,37,14,casillas_tseltal_2015,29,ich,NA,NA,NA,chile,distractor,69,34,0.6699029126213593,NA,1,1,NA,340,1,2760,2760,2760,4,all
14_14_casillas_tseltal_2015_29,38,14,casillas_tseltal_2015,29,mes,NA,NA,NA,broom,distractor,93,2,0.9789473684210527,NA,1,1,NA,340,0,3720,3720,3720,4,all
14_14_casillas_tseltal_2015_29,39,14,casillas_tseltal_2015,29,machit,NA,NA,NA,machete,target,47,56,0.4563106796116505,NA,1,NA,0,NA,1,1560,320,1560,4,all
14_14_casillas_tseltal_2015_29,40,14,casillas_tseltal_2015,29,si',NA,NA,NA,firewood,target,83,21,0.7980769230769231,NA,1,NA,1,NA,1,3320,3320,3320,4,all
15_15_casillas_tseltal_2015_39,1,15,casillas_tseltal_2015,39,lo'bal,NA,NA,NA,banana,target,58,43,0.5742574257425742,NA,3,NA,0,NA,2,773.3333333333334,1280,1280,14,all
15_15_casillas_tseltal_2015_39,8,15,casillas_tseltal_2015,39,xila,NA,NA,NA,chair,target,14,90,0.1346153846153846,NA,1,NA,0,NA,1,560,560,560,14,all
15_15_casillas_tseltal_2015_39,13,15,casillas_tseltal_2015,39,wa,NA,NA,NA,tortilla,distractor,16,87,0.1553398058252427,NA,1,1,NA,465,2,640,640,640,14,all
15_15_casillas_tseltal_2015_39,14,15,casillas_tseltal_2015,39,moch,NA,NA,NA,basket-tseltal,target,106,0,1,NA,1,NA,1,NA,0,4240,4240,4240,14,all
15_15_casillas_tseltal_2015_39,15,15,casillas_tseltal_2015,39,pelota,NA,NA,NA,ball,distractor,0,106,0,NA,NA,0,NA,NA,0,NA,NA,NA,14,all
15_15_casillas_tseltal_2015_39,16,15,casillas_tseltal_2015,39,chojak',NA,NA,NA,purse-tseltal,distractor,73,28,0.7227722772277227,NA,1,1,NA,265,1,2920,2920,2920,14,all
15_15_casillas_tseltal_2015_39,17,15,casillas_tseltal_2015,39,baso,NA,NA,NA,cup,target,42,59,0.4158415841584158,NA,1,NA,0,NA,1,1400,1400,1400,14,all
15_15_casillas_tseltal_2015_39,18,15,casillas_tseltal_2015,39,nichim,NA,NA,NA,flower,target,67,28,0.7052631578947368,NA,1,NA,1,NA,1,2680,2680,2680,14,all
15_15_casillas_tseltal_2015_39,19,15,casillas_tseltal_2015,39,balti,NA,NA,NA,bucket,distractor,65,32,0.6701030927835051,NA,1,1,NA,365,1,2400,2400,2400,14,all
15_15_casillas_tseltal_2015_39,20,15,casillas_tseltal_2015,39,mut,NA,NA,NA,chicken,distractor,57,43,0.57,NA,2,1,NA,615,3,1140,720,1560,14,all
15_15_casillas_tseltal_2015_39,21,15,casillas_tseltal_2015,39,k'ajk',NA,NA,NA,fire,distractor,44,58,0.43137254901960786,NA,2,1,NA,65,1,880,1200,1200,14,all
15_15_casillas_tseltal_2015_39,22,15,casillas_tseltal_2015,39,mexa,NA,NA,NA,table,distractor,30,72,0.29411764705882354,NA,1,0,NA,NA,1,1200,1200,1200,14,all
15_15_casillas_tseltal_2015_39,23,15,casillas_tseltal_2015,39,xawin,NA,NA,NA,cat,target,39,66,0.37142857142857144,NA,2,NA,0,NA,2,780,1080,1080,14,all
15_15_casillas_tseltal_2015_39,24,15,casillas_tseltal_2015,39,ja',NA,NA,NA,water,distractor,36,55,0.3956043956043956,NA,1,1,NA,65,1,1440,1440,1440,14,all
15_15_casillas_tseltal_2015_39,25,15,casillas_tseltal_2015,39,ixim,NA,NA,NA,corn,target,35,62,0.36082474226804123,NA,2,NA,0,NA,2,700,640,760,14,all
15_15_casillas_tseltal_2015_39,26,15,casillas_tseltal_2015,39,karo,NA,NA,NA,car,target,106,0,1,NA,1,NA,1,NA,0,4240,4240,4240,14,all
15_15_casillas_tseltal_2015_39,27,15,casillas_tseltal_2015,39,bojch,NA,NA,NA,bowl-tseltal,distractor,92,13,0.8761904761904762,NA,1,1,NA,365,1,3680,3680,3680,14,all
15_15_casillas_tseltal_2015_39,28,15,casillas_tseltal_2015,39,na,NA,NA,NA,house,distractor,96,6,0.9411764705882353,NA,1,1,NA,265,0,3840,3840,3840,14,all
15_15_casillas_tseltal_2015_39,29,15,casillas_tseltal_2015,39,te,NA,NA,NA,tree,distractor,64,34,0.6530612244897959,NA,1,1,NA,215,1,2560,2560,2560,14,all
15_15_casillas_tseltal_2015_39,30,15,casillas_tseltal_2015,39,waybal,NA,NA,NA,bed,target,69,29,0.7040816326530612,NA,2,NA,0,NA,2,1380,1720,1720,14,all
15_15_casillas_tseltal_2015_39,31,15,casillas_tseltal_2015,39,t'inel,NA,NA,NA,doorway,distractor,31,67,0.3163265306122449,NA,1,1,NA,140,1,880,880,880,14,all
15_15_casillas_tseltal_2015_39,32,15,casillas_tseltal_2015,39,chenek',NA,NA,NA,bean,target,6,98,0.057692307692307696,NA,NA,NA,0,NA,0,NA,240,NA,14,all
15_15_casillas_tseltal_2015_39,33,15,casillas_tseltal_2015,39,tz'i,NA,NA,NA,dog,target,106,0,1,NA,1,NA,1,NA,0,4240,4240,4240,14,all
15_15_casillas_tseltal_2015_39,34,15,casillas_tseltal_2015,39,tomut,NA,NA,NA,egg,distractor,73,29,0.7156862745098039,NA,1,1,NA,265,1,2920,2920,2920,14,all
15_15_casillas_tseltal_2015_39,35,15,casillas_tseltal_2015,39,p'in,NA,NA,NA,pot-tseltal,distractor,95,10,0.9047619047619048,NA,1,1,NA,290,0,3800,3800,3800,14,all
15_15_casillas_tseltal_2015_39,36,15,casillas_tseltal_2015,39,tzek',NA,NA,NA,skirt-tseltal,distractor,5,78,0.060240963855421686,NA,NA,0,NA,NA,0,NA,200,NA,14,all
15_15_casillas_tseltal_2015_39,37,15,casillas_tseltal_2015,39,ich,NA,NA,NA,chile,target,74,31,0.7047619047619048,NA,2,NA,0,NA,2,1480,2120,2120,14,all
15_15_casillas_tseltal_2015_39,38,15,casillas_tseltal_2015,39,mes,NA,NA,NA,broom,distractor,79,26,0.7523809523809524,NA,1,1,NA,90,1,3160,3160,3160,14,all
15_15_casillas_tseltal_2015_39,39,15,casillas_tseltal_2015,39,machit,NA,NA,NA,machete,distractor,63,37,0.63,NA,1,1,NA,490,2,2440,2440,2440,14,all
15_15_casillas_tseltal_2015_39,40,15,casillas_tseltal_2015,39,si',NA,NA,NA,firewood,target,61,32,0.6559139784946236,NA,2,NA,0,NA,2,1220,1600,1600,14,all
16_16_casillas_tseltal_2015_41,1,16,casillas_tseltal_2015,41,lo'bal,NA,NA,NA,banana,target,106,0,1,NA,1,NA,1,NA,0,4240,4240,4240,16,all
16_16_casillas_tseltal_2015_41,8,16,casillas_tseltal_2015,41,xila,NA,NA,NA,chair,target,54,48,0.5294117647058824,NA,1,NA,1,NA,1,2160,2160,2160,16,all
16_16_casillas_tseltal_2015_41,13,16,casillas_tseltal_2015,41,wa,NA,NA,NA,tortilla,distractor,0,106,0,NA,NA,0,NA,NA,0,NA,NA,NA,16,all
16_16_casillas_tseltal_2015_41,14,16,casillas_tseltal_2015,41,moch,NA,NA,NA,basket-tseltal,distractor,84,21,0.8,NA,1,1,NA,565,1,3360,3360,3360,16,all
16_16_casillas_tseltal_2015_41,15,16,casillas_tseltal_2015,41,pelota,NA,NA,NA,ball,target,21,84,0.2,NA,1,NA,0,NA,1,840,840,840,16,all
16_16_casillas_tseltal_2015_41,16,16,casillas_tseltal_2015,41,chojak',NA,NA,NA,purse-tseltal,target,69,36,0.6571428571428571,NA,1,NA,1,NA,1,2760,2760,2760,16,all
16_16_casillas_tseltal_2015_41,17,16,casillas_tseltal_2015,41,baso,NA,NA,NA,cup,target,71,29,0.71,NA,2,NA,0,NA,2,1420,1600,1600,16,all
16_16_casillas_tseltal_2015_41,18,16,casillas_tseltal_2015,41,nichim,NA,NA,NA,flower,target,95,9,0.9134615384615384,NA,1,NA,0,NA,0,3480,320,3480,16,all
16_16_casillas_tseltal_2015_41,19,16,casillas_tseltal_2015,41,balti,NA,NA,NA,bucket,target,106,0,1,NA,1,NA,1,NA,0,4240,4240,4240,16,all
16_16_casillas_tseltal_2015_41,20,16,casillas_tseltal_2015,41,mut,NA,NA,NA,chicken,distractor,45,58,0.4368932038834951,NA,1,1,NA,90,1,1800,1800,1800,16,all
16_16_casillas_tseltal_2015_41,21,16,casillas_tseltal_2015,41,k'ajk',NA,NA,NA,fire,target,18,87,0.17142857142857143,NA,1,NA,0,NA,1,720,720,720,16,all
16_16_casillas_tseltal_2015_41,22,16,casillas_tseltal_2015,41,mexa,NA,NA,NA,table,target,22,80,0.21568627450980393,NA,1,NA,0,NA,1,880,880,880,16,all
16_16_casillas_tseltal_2015_41,23,16,casillas_tseltal_2015,41,xawin,NA,NA,NA,cat,target,106,0,1,NA,1,NA,1,NA,0,4240,4240,4240,16,all
16_16_casillas_tseltal_2015_41,24,16,casillas_tseltal_2015,41,ja',NA,NA,NA,water,distractor,60,45,0.5714285714285714,NA,1,1,NA,1165,1,2400,2400,2400,16,all
16_16_casillas_tseltal_2015_41,25,16,casillas_tseltal_2015,41,ixim,NA,NA,NA,corn,target,32,72,0.3076923076923077,NA,1,NA,0,NA,1,1280,1280,1280,16,all
16_16_casillas_tseltal_2015_41,26,16,casillas_tseltal_2015,41,karo,NA,NA,NA,car,target,106,0,1,NA,1,NA,1,NA,0,4240,4240,4240,16,all
16_16_casillas_tseltal_2015_41,27,16,casillas_tseltal_2015,41,bojch,NA,NA,NA,bowl-tseltal,target,29,42,0.4084507042253521,NA,1,NA,0,NA,1,1040,1040,1040,16,all
16_16_casillas_tseltal_2015_41,28,16,casillas_tseltal_2015,41,na,NA,NA,NA,house,target,106,0,1,NA,1,NA,1,NA,0,4240,4240,4240,16,all
16_16_casillas_tseltal_2015_41,29,16,casillas_tseltal_2015,41,te,NA,NA,NA,tree,distractor,76,29,0.7238095238095238,NA,1,1,NA,765,1,3040,3040,3040,16,all
16_16_casillas_tseltal_2015_41,30,16,casillas_tseltal_2015,41,waybal,NA,NA,NA,bed,target,106,0,1,NA,1,NA,1,NA,0,4240,4240,4240,16,all
16_16_casillas_tseltal_2015_41,31,16,casillas_tseltal_2015,41,t'inel,NA,NA,NA,doorway,distractor,69,29,0.7040816326530612,NA,2,1,NA,340,2,1380,1400,1400,16,all
16_16_casillas_tseltal_2015_41,32,16,casillas_tseltal_2015,41,chenek',NA,NA,NA,bean,target,21,84,0.2,NA,1,NA,0,NA,1,840,840,840,16,all
16_16_casillas_tseltal_2015_41,33,16,casillas_tseltal_2015,41,tz'i,NA,NA,NA,dog,target,71,30,0.7029702970297029,NA,2,NA,1,NA,2,1420,2360,2360,16,all
16_16_casillas_tseltal_2015_41,34,16,casillas_tseltal_2015,41,tomut,NA,NA,NA,egg,distractor,80,24,0.7692307692307693,NA,1,1,NA,665,1,3200,3200,3200,16,all
16_16_casillas_tseltal_2015_41,35,16,casillas_tseltal_2015,41,p'in,NA,NA,NA,pot-tseltal,target,106,0,1,NA,1,NA,1,NA,0,4240,4240,4240,16,all
16_16_casillas_tseltal_2015_41,36,16,casillas_tseltal_2015,41,tzek',NA,NA,NA,skirt-tseltal,distractor,26,77,0.2524271844660194,NA,1,0,NA,NA,1,1040,1040,1040,16,all
16_16_casillas_tseltal_2015_41,37,16,casillas_tseltal_2015,41,ich,NA,NA,NA,chile,target,46,56,0.45098039215686275,NA,1,NA,0,NA,1,1760,1760,1760,16,all
16_16_casillas_tseltal_2015_41,38,16,casillas_tseltal_2015,41,mes,NA,NA,NA,broom,target,79,23,0.7745098039215687,NA,1,NA,0,NA,1,3080,3080,3080,16,all
16_16_casillas_tseltal_2015_41,39,16,casillas_tseltal_2015,41,machit,NA,NA,NA,machete,distractor,92,10,0.9019607843137255,NA,2,1,NA,290,0,1840,1680,2000,16,all
16_16_casillas_tseltal_2015_41,40,16,casillas_tseltal_2015,41,si',NA,NA,NA,firewood,target,106,0,1,NA,1,NA,1,NA,0,4240,4240,4240,16,all
17_17_casillas_tseltal_2015_32,1,17,casillas_tseltal_2015,32,lo'bal,NA,NA,NA,banana,target,72,34,0.6792452830188679,NA,1,NA,1,NA,1,2880,2880,2880,7,all
17_17_casillas_tseltal_2015_32,8,17,casillas_tseltal_2015,32,xila,NA,NA,NA,chair,target,71,32,0.6893203883495146,NA,1,NA,0,NA,1,2400,440,2400,7,all
17_17_casillas_tseltal_2015_32,13,17,casillas_tseltal_2015,32,wa,NA,NA,NA,tortilla,neither,71,29,0.71,NA,2,NA,NA,NA,2,1420,960,1880,7,all
17_17_casillas_tseltal_2015_32,14,17,casillas_tseltal_2015,32,moch,NA,NA,NA,basket-tseltal,target,106,0,1,NA,1,NA,1,NA,0,4240,4240,4240,7,all
17_17_casillas_tseltal_2015_32,15,17,casillas_tseltal_2015,32,pelota,NA,NA,NA,ball,distractor,18,87,0.17142857142857143,NA,NA,1,NA,265,0,NA,440,NA,7,all
17_17_casillas_tseltal_2015_32,16,17,casillas_tseltal_2015,32,chojak',NA,NA,NA,purse-tseltal,distractor,82,22,0.7884615384615384,NA,1,1,NA,615,1,3280,3280,3280,7,all
17_17_casillas_tseltal_2015_32,17,17,casillas_tseltal_2015,32,baso,NA,NA,NA,cup,distractor,60,45,0.5714285714285714,NA,1,1,NA,1165,1,2400,2400,2400,7,all
17_17_casillas_tseltal_2015_32,18,17,casillas_tseltal_2015,32,nichim,NA,NA,NA,flower,target,59,45,0.5673076923076923,NA,1,NA,1,NA,1,2360,2360,2360,7,all
17_17_casillas_tseltal_2015_32,19,17,casillas_tseltal_2015,32,balti,NA,NA,NA,bucket,target,106,0,1,NA,1,NA,1,NA,0,4240,4240,4240,7,all
17_17_casillas_tseltal_2015_32,20,17,casillas_tseltal_2015,32,mut,NA,NA,NA,chicken,target,67,39,0.6320754716981132,NA,1,NA,1,NA,1,2680,2680,2680,7,all
17_17_casillas_tseltal_2015_32,21,17,casillas_tseltal_2015,32,k'ajk',NA,NA,NA,fire,target,106,0,1,NA,1,NA,1,NA,0,4240,4240,4240,7,all
17_17_casillas_tseltal_2015_32,22,17,casillas_tseltal_2015,32,mexa,NA,NA,NA,table,distractor,0,98,0,NA,NA,0,NA,NA,0,NA,NA,NA,7,all
17_17_casillas_tseltal_2015_32,23,17,casillas_tseltal_2015,32,xawin,NA,NA,NA,cat,target,106,0,1,NA,1,NA,1,NA,0,4240,4240,4240,7,all
17_17_casillas_tseltal_2015_32,24,17,casillas_tseltal_2015,32,ja',NA,NA,NA,water,target,53,50,0.5145631067961165,NA,1,NA,0,NA,1,2120,2120,2120,7,all
17_17_casillas_tseltal_2015_32,25,17,casillas_tseltal_2015,32,ixim,NA,NA,NA,corn,target,46,56,0.45098039215686275,NA,1,NA,0,NA,1,1840,1840,1840,7,all
17_17_casillas_tseltal_2015_32,26,17,casillas_tseltal_2015,32,karo,NA,NA,NA,car,target,70,34,0.6730769230769231,NA,2,NA,0,NA,2,1400,2160,2160,7,all
17_17_casillas_tseltal_2015_32,27,17,casillas_tseltal_2015,32,bojch,NA,NA,NA,bowl-tseltal,target,46,56,0.45098039215686275,NA,1,NA,0,NA,2,1840,1840,1840,7,all
17_17_casillas_tseltal_2015_32,28,17,casillas_tseltal_2015,32,na,NA,NA,NA,house,distractor,85,21,0.8018867924528302,NA,1,1,NA,540,1,3400,3400,3400,7,all
17_17_casillas_tseltal_2015_32,29,17,casillas_tseltal_2015,32,te,NA,NA,NA,tree,distractor,74,28,0.7254901960784313,NA,2,1,NA,415,3,1480,840,2120,7,all
17_17_casillas_tseltal_2015_32,30,17,casillas_tseltal_2015,32,waybal,NA,NA,NA,bed,distractor,75,30,0.7142857142857143,NA,1,1,NA,465,2,3000,3000,3000,7,all
17_17_casillas_tseltal_2015_32,31,17,casillas_tseltal_2015,32,t'inel,NA,NA,NA,doorway,target,101,0,1,NA,1,NA,1,NA,0,3760,3760,3760,7,all
17_17_casillas_tseltal_2015_32,32,17,casillas_tseltal_2015,32,chenek',NA,NA,NA,bean,distractor,0,106,0,NA,NA,0,NA,NA,0,NA,NA,NA,7,all
17_17_casillas_tseltal_2015_32,33,17,casillas_tseltal_2015,32,tz'i,NA,NA,NA,dog,distractor,84,16,0.84,NA,1,1,NA,415,1,3360,3360,3360,7,all
17_17_casillas_tseltal_2015_32,34,17,casillas_tseltal_2015,32,tomut,NA,NA,NA,egg,target,90,14,0.8653846153846154,NA,2,NA,0,NA,2,1800,1400,2200,7,all
17_17_casillas_tseltal_2015_32,35,17,casillas_tseltal_2015,32,p'in,NA,NA,NA,pot-tseltal,target,87,0,1,NA,1,NA,1,NA,0,3400,3400,3400,7,all
17_17_casillas_tseltal_2015_32,36,17,casillas_tseltal_2015,32,tzek',NA,NA,NA,skirt-tseltal,target,54,50,0.5192307692307693,NA,2,NA,0,NA,2,1080,1680,1680,7,all
17_17_casillas_tseltal_2015_32,37,17,casillas_tseltal_2015,32,ich,NA,NA,NA,chile,target,37,65,0.3627450980392157,NA,1,NA,0,NA,1,1200,1200,1200,7,all
17_17_casillas_tseltal_2015_32,38,17,casillas_tseltal_2015,32,mes,NA,NA,NA,broom,distractor,80,24,0.7692307692307693,NA,1,1,NA,665,1,3200,3200,3200,7,all
17_17_casillas_tseltal_2015_32,39,17,casillas_tseltal_2015,32,machit,NA,NA,NA,machete,distractor,61,42,0.5922330097087378,NA,1,1,NA,540,2,2440,2440,2440,7,all
17_17_casillas_tseltal_2015_32,40,17,casillas_tseltal_2015,32,si',NA,NA,NA,firewood,target,100,0,1,NA,2,NA,1,NA,0,2000,2560,2560,7,all
18_18_casillas_tseltal_2015_32,1,18,casillas_tseltal_2015,32,lo'bal,NA,NA,NA,banana,target,59,36,0.6210526315789474,NA,1,NA,1,NA,1,2360,2360,2360,7,all
18_18_casillas_tseltal_2015_32,8,18,casillas_tseltal_2015,32,xila,NA,NA,NA,chair,neither,28,43,0.39436619718309857,NA,1,NA,NA,NA,2,1120,1120,1120,7,all
18_18_casillas_tseltal_2015_32,13,18,casillas_tseltal_2015,32,wa,NA,NA,NA,tortilla,distractor,42,58,0.42,NA,1,1,NA,415,2,1680,1680,1680,7,all
18_18_casillas_tseltal_2015_32,14,18,casillas_tseltal_2015,32,moch,NA,NA,NA,basket-tseltal,distractor,77,23,0.77,NA,1,1,NA,415,1,3080,3080,3080,7,all
18_18_casillas_tseltal_2015_32,15,18,casillas_tseltal_2015,32,pelota,NA,NA,NA,ball,distractor,52,48,0.52,NA,1,1,NA,1365,1,2080,2080,2080,7,all
18_18_casillas_tseltal_2015_32,16,18,casillas_tseltal_2015,32,chojak',NA,NA,NA,purse-tseltal,target,72,24,0.75,NA,2,NA,1,NA,2,1440,2360,2360,7,all
18_18_casillas_tseltal_2015_32,17,18,casillas_tseltal_2015,32,baso,NA,NA,NA,cup,distractor,100,5,0.9523809523809523,NA,1,1,NA,165,0,4000,4000,4000,7,all
18_18_casillas_tseltal_2015_32,18,18,casillas_tseltal_2015,32,nichim,NA,NA,NA,flower,target,106,0,1,NA,1,NA,1,NA,0,4240,4240,4240,7,all
18_18_casillas_tseltal_2015_32,19,18,casillas_tseltal_2015,32,balti,NA,NA,NA,bucket,target,106,0,1,NA,1,NA,1,NA,0,4240,4240,4240,7,all
18_18_casillas_tseltal_2015_32,20,18,casillas_tseltal_2015,32,mut,NA,NA,NA,chicken,distractor,38,61,0.3838383838383838,NA,1,0,NA,NA,1,1520,1520,1520,7,all
18_18_casillas_tseltal_2015_32,21,18,casillas_tseltal_2015,32,k'ajk',NA,NA,NA,fire,distractor,80,22,0.7843137254901961,NA,1,1,NA,665,1,3200,3200,3200,7,all
18_18_casillas_tseltal_2015_32,22,18,casillas_tseltal_2015,32,mexa,NA,NA,NA,table,target,61,36,0.6288659793814433,NA,2,NA,0,NA,2,1220,1400,1400,7,all
18_18_casillas_tseltal_2015_32,23,18,casillas_tseltal_2015,32,xawin,NA,NA,NA,cat,distractor,74,26,0.74,NA,2,1,NA,215,2,1480,2000,2000,7,all
18_18_casillas_tseltal_2015_32,24,18,casillas_tseltal_2015,32,ja',NA,NA,NA,water,target,66,34,0.66,NA,2,NA,0,NA,2,1320,2040,2040,7,all
18_18_casillas_tseltal_2015_32,25,18,casillas_tseltal_2015,32,ixim,NA,NA,NA,corn,target,67,35,0.6568627450980392,NA,2,NA,0,NA,2,1340,1080,1600,7,all
18_18_casillas_tseltal_2015_32,26,18,casillas_tseltal_2015,32,karo,NA,NA,NA,car,target,74,27,0.7326732673267327,NA,1,NA,1,NA,1,2880,2880,2880,7,all
18_18_casillas_tseltal_2015_32,28,18,casillas_tseltal_2015,32,na,NA,NA,NA,house,neither,37,48,0.43529411764705883,NA,2,NA,NA,NA,2,740,560,920,7,all
18_18_casillas_tseltal_2015_32,29,18,casillas_tseltal_2015,32,te,NA,NA,NA,tree,distractor,38,61,0.3838383838383838,NA,1,1,NA,865,2,1520,1520,1520,7,all
18_18_casillas_tseltal_2015_32,30,18,casillas_tseltal_2015,32,waybal,NA,NA,NA,bed,target,2,103,0.01904761904761905,NA,NA,NA,0,NA,0,NA,NA,NA,7,all
18_18_casillas_tseltal_2015_32,31,18,casillas_tseltal_2015,32,t'inel,NA,NA,NA,doorway,target,106,0,1,NA,1,NA,1,NA,0,4240,4240,4240,7,all
18_18_casillas_tseltal_2015_32,32,18,casillas_tseltal_2015,32,chenek',NA,NA,NA,bean,distractor,0,106,0,NA,NA,0,NA,NA,0,NA,NA,NA,7,all
18_18_casillas_tseltal_2015_32,33,18,casillas_tseltal_2015,32,tz'i,NA,NA,NA,dog,distractor,32,68,0.32,NA,1,1,NA,1015,2,960,960,960,7,all
18_18_casillas_tseltal_2015_32,34,18,casillas_tseltal_2015,32,tomut,NA,NA,NA,egg,distractor,39,62,0.38613861386138615,NA,1,0,NA,NA,1,1560,1560,1560,7,all
18_18_casillas_tseltal_2015_32,35,18,casillas_tseltal_2015,32,p'in,NA,NA,NA,pot-tseltal,distractor,0,84,0,NA,NA,0,NA,NA,0,NA,NA,NA,7,all
18_18_casillas_tseltal_2015_32,36,18,casillas_tseltal_2015,32,tzek',NA,NA,NA,skirt-tseltal,distractor,30,59,0.33707865168539325,NA,1,0,NA,NA,1,1200,1200,1200,7,all
18_18_casillas_tseltal_2015_32,37,18,casillas_tseltal_2015,32,ich,NA,NA,NA,chile,distractor,72,31,0.6990291262135923,NA,1,1,NA,65,1,2880,2880,2880,7,all
18_18_casillas_tseltal_2015_32,38,18,casillas_tseltal_2015,32,mes,NA,NA,NA,broom,target,106,0,1,NA,1,NA,1,NA,0,4240,4240,4240,7,all
18_18_casillas_tseltal_2015_32,39,18,casillas_tseltal_2015,32,machit,NA,NA,NA,machete,distractor,73,27,0.73,NA,1,1,NA,490,1,2840,2840,2840,7,all
18_18_casillas_tseltal_2015_32,40,18,casillas_tseltal_2015,32,si',NA,NA,NA,firewood,distractor,64,25,0.7191011235955056,NA,1,1,NA,65,1,2160,2160,2160,7,all
19_19_casillas_tseltal_2015_35,1,19,casillas_tseltal_2015,35,lo'bal,NA,NA,NA,banana,distractor,84,19,0.8155339805825242,NA,1,1,NA,565,1,3360,3360,3360,10,all
19_19_casillas_tseltal_2015_35,8,19,casillas_tseltal_2015,35,xila,NA,NA,NA,chair,target,83,21,0.7980769230769231,NA,1,NA,1,NA,1,3320,3320,3320,10,all
19_19_casillas_tseltal_2015_35,13,19,casillas_tseltal_2015,35,wa,NA,NA,NA,tortilla,distractor,0,95,0,NA,NA,0,NA,NA,0,NA,NA,NA,10,all
19_19_casillas_tseltal_2015_35,14,19,casillas_tseltal_2015,35,moch,NA,NA,NA,basket-tseltal,distractor,0,106,0,NA,NA,0,NA,NA,0,NA,NA,NA,10,all
19_19_casillas_tseltal_2015_35,15,19,casillas_tseltal_2015,35,pelota,NA,NA,NA,ball,distractor,0,106,0,NA,NA,0,NA,NA,0,NA,NA,NA,10,all
19_19_casillas_tseltal_2015_35,16,19,casillas_tseltal_2015,35,chojak',NA,NA,NA,purse-tseltal,distractor,63,40,0.6116504854368932,NA,1,1,NA,1090,1,2520,2520,2520,10,all
19_19_casillas_tseltal_2015_35,17,19,casillas_tseltal_2015,35,baso,NA,NA,NA,cup,target,12,90,0.11764705882352941,NA,NA,NA,0,NA,0,NA,200,NA,10,all
19_19_casillas_tseltal_2015_35,18,19,casillas_tseltal_2015,35,nichim,NA,NA,NA,flower,distractor,0,106,0,NA,NA,0,NA,NA,0,NA,NA,NA,10,all
19_19_casillas_tseltal_2015_35,19,19,casillas_tseltal_2015,35,balti,NA,NA,NA,bucket,distractor,0,106,0,NA,NA,0,NA,NA,0,NA,NA,NA,10,all
19_19_casillas_tseltal_2015_35,20,19,casillas_tseltal_2015,35,mut,NA,NA,NA,chicken,target,54,48,0.5294117647058824,NA,1,NA,1,NA,1,2160,2160,2160,10,all
19_19_casillas_tseltal_2015_35,21,19,casillas_tseltal_2015,35,k'ajk',NA,NA,NA,fire,distractor,85,19,0.8173076923076923,NA,1,1,NA,540,1,3400,3400,3400,10,all
19_19_casillas_tseltal_2015_35,22,19,casillas_tseltal_2015,35,mexa,NA,NA,NA,table,distractor,87,19,0.8207547169811321,NA,1,1,NA,490,1,3480,3480,3480,10,all
19_19_casillas_tseltal_2015_35,23,19,casillas_tseltal_2015,35,xawin,NA,NA,NA,cat,distractor,76,29,0.7238095238095238,NA,1,1,NA,765,1,3040,3040,3040,10,all
19_19_casillas_tseltal_2015_35,24,19,casillas_tseltal_2015,35,ja',NA,NA,NA,water,target,106,0,1,NA,1,NA,1,NA,0,4240,4240,4240,10,all
19_19_casillas_tseltal_2015_35,25,19,casillas_tseltal_2015,35,ixim,NA,NA,NA,corn,target,16,88,0.15384615384615385,NA,1,NA,0,NA,1,640,640,640,10,all
19_19_casillas_tseltal_2015_35,26,19,casillas_tseltal_2015,35,karo,NA,NA,NA,car,target,85,20,0.8095238095238095,NA,1,NA,1,NA,1,3400,3400,3400,10,all
19_19_casillas_tseltal_2015_35,27,19,casillas_tseltal_2015,35,bojch,NA,NA,NA,bowl-tseltal,neither,24,32,0.42857142857142855,NA,1,NA,NA,NA,2,960,960,960,10,all
19_19_casillas_tseltal_2015_35,28,19,casillas_tseltal_2015,35,na,NA,NA,NA,house,target,74,21,0.7789473684210526,NA,2,NA,1,NA,2,1480,2320,2320,10,all
19_19_casillas_tseltal_2015_35,29,19,casillas_tseltal_2015,35,te,NA,NA,NA,tree,neither,79,0,1,NA,1,NA,NA,NA,0,3160,3160,3160,10,all
19_19_casillas_tseltal_2015_35,30,19,casillas_tseltal_2015,35,waybal,NA,NA,NA,bed,target,11,84,0.11578947368421053,NA,NA,NA,0,NA,0,NA,440,NA,10,all
19_19_casillas_tseltal_2015_35,31,19,casillas_tseltal_2015,35,t'inel,NA,NA,NA,doorway,target,65,39,0.625,NA,2,NA,0,NA,3,1300,720,1880,10,all
19_19_casillas_tseltal_2015_35,32,19,casillas_tseltal_2015,35,chenek',NA,NA,NA,bean,target,89,15,0.8557692307692307,NA,2,NA,0,NA,2,1780,1040,2520,10,all
19_19_casillas_tseltal_2015_35,33,19,casillas_tseltal_2015,35,tz'i,NA,NA,NA,dog,neither,12,72,0.14285714285714285,NA,1,NA,NA,NA,1,480,480,480,10,all
19_19_casillas_tseltal_2015_35,34,19,casillas_tseltal_2015,35,tomut,NA,NA,NA,egg,distractor,0,106,0,NA,NA,0,NA,NA,0,NA,NA,NA,10,all
19_19_casillas_tseltal_2015_35,36,19,casillas_tseltal_2015,35,tzek',NA,NA,NA,skirt-tseltal,target,73,31,0.7019230769230769,NA,2,NA,0,NA,2,1460,1680,1680,10,all
19_19_casillas_tseltal_2015_35,37,19,casillas_tseltal_2015,35,ich,NA,NA,NA,chile,target,72,0,1,NA,1,NA,1,NA,0,2880,2880,2880,10,all
19_19_casillas_tseltal_2015_35,38,19,casillas_tseltal_2015,35,mes,NA,NA,NA,broom,distractor,59,44,0.5728155339805825,NA,1,1,NA,465,2,2360,2360,2360,10,all
19_19_casillas_tseltal_2015_35,39,19,casillas_tseltal_2015,35,machit,NA,NA,NA,machete,target,22,82,0.21153846153846154,NA,1,NA,0,NA,1,880,880,880,10,all
19_19_casillas_tseltal_2015_35,40,19,casillas_tseltal_2015,35,si',NA,NA,NA,firewood,target,106,0,1,NA,1,NA,1,NA,0,4240,4240,4240,10,all
20_20_casillas_tseltal_2015_36,1,20,casillas_tseltal_2015,36,lo'bal,NA,NA,NA,banana,target,106,0,1,NA,1,NA,1,NA,0,4240,4240,4240,11,all
20_20_casillas_tseltal_2015_36,8,20,casillas_tseltal_2015,36,xila,NA,NA,NA,chair,distractor,35,67,0.3431372549019608,NA,1,1,NA,1215,2,1400,1400,1400,11,all
20_20_casillas_tseltal_2015_36,13,20,casillas_tseltal_2015,36,wa,NA,NA,NA,tortilla,distractor,8,94,0.0784313725490196,NA,NA,1,NA,615,0,NA,320,NA,11,all
20_20_casillas_tseltal_2015_36,14,20,casillas_tseltal_2015,36,moch,NA,NA,NA,basket-tseltal,distractor,88,16,0.8461538461538461,NA,1,1,NA,465,1,3520,3520,3520,11,all
20_20_casillas_tseltal_2015_36,15,20,casillas_tseltal_2015,36,pelota,NA,NA,NA,ball,distractor,50,53,0.4854368932038835,NA,1,1,NA,1415,1,2000,2000,2000,11,all
20_20_casillas_tseltal_2015_36,16,20,casillas_tseltal_2015,36,chojak',NA,NA,NA,purse-tseltal,distractor,92,13,0.8761904761904762,NA,1,1,NA,365,1,3680,3680,3680,11,all
20_20_casillas_tseltal_2015_36,17,20,casillas_tseltal_2015,36,baso,NA,NA,NA,cup,distractor,59,43,0.5784313725490197,NA,1,1,NA,940,1,2360,2360,2360,11,all
20_20_casillas_tseltal_2015_36,18,20,casillas_tseltal_2015,36,nichim,NA,NA,NA,flower,target,82,23,0.780952380952381,NA,1,NA,1,NA,1,3280,3280,3280,11,all
20_20_casillas_tseltal_2015_36,19,20,casillas_tseltal_2015,36,balti,NA,NA,NA,bucket,target,60,42,0.5882352941176471,NA,2,NA,0,NA,2,1200,1160,1240,11,all
20_20_casillas_tseltal_2015_36,20,20,casillas_tseltal_2015,36,mut,NA,NA,NA,chicken,target,40,59,0.40404040404040403,NA,1,NA,0,NA,2,1600,1600,1600,11,all
20_20_casillas_tseltal_2015_36,21,20,casillas_tseltal_2015,36,k'ajk',NA,NA,NA,fire,target,64,36,0.64,NA,1,NA,0,NA,1,2120,440,2120,11,all
20_20_casillas_tseltal_2015_36,22,20,casillas_tseltal_2015,36,mexa,NA,NA,NA,table,target,80,22,0.7843137254901961,NA,2,NA,0,NA,2,1600,760,2440,11,all
20_20_casillas_tseltal_2015_36,23,20,casillas_tseltal_2015,36,xawin,NA,NA,NA,cat,distractor,29,73,0.28431372549019607,NA,1,1,NA,340,1,1160,1160,1160,11,all
20_20_casillas_tseltal_2015_36,24,20,casillas_tseltal_2015,36,ja',NA,NA,NA,water,target,83,20,0.8058252427184466,NA,1,NA,1,NA,1,3320,3320,3320,11,all
20_20_casillas_tseltal_2015_36,25,20,casillas_tseltal_2015,36,ixim,NA,NA,NA,corn,target,24,80,0.23076923076923078,NA,1,NA,0,NA,1,960,960,960,11,all
20_20_casillas_tseltal_2015_36,26,20,casillas_tseltal_2015,36,karo,NA,NA,NA,car,distractor,95,8,0.9223300970873787,NA,1,1,NA,290,0,3800,3800,3800,11,all
20_20_casillas_tseltal_2015_36,27,20,casillas_tseltal_2015,36,bojch,NA,NA,NA,bowl-tseltal,target,17,81,0.17346938775510204,NA,1,NA,0,NA,2,560,560,560,11,all
20_20_casillas_tseltal_2015_36,28,20,casillas_tseltal_2015,36,na,NA,NA,NA,house,target,69,29,0.7040816326530612,NA,1,NA,1,NA,1,2760,2760,2760,11,all
20_20_casillas_tseltal_2015_36,29,20,casillas_tseltal_2015,36,te,NA,NA,NA,tree,distractor,63,40,0.6116504854368932,NA,1,1,NA,1090,1,2520,2520,2520,11,all
20_20_casillas_tseltal_2015_36,30,20,casillas_tseltal_2015,36,waybal,NA,NA,NA,bed,target,102,0,1,NA,1,NA,1,NA,0,3920,3920,3920,11,all
20_20_casillas_tseltal_2015_36,31,20,casillas_tseltal_2015,36,t'inel,NA,NA,NA,doorway,distractor,24,79,0.23300970873786409,NA,1,1,NA,340,1,960,960,960,11,all
20_20_casillas_tseltal_2015_36,32,20,casillas_tseltal_2015,36,chenek',NA,NA,NA,bean,distractor,46,54,0.46,NA,1,1,NA,865,2,1840,1840,1840,11,all
20_20_casillas_tseltal_2015_36,33,20,casillas_tseltal_2015,36,tz'i,NA,NA,NA,dog,distractor,88,16,0.8461538461538461,NA,1,1,NA,465,1,3520,3520,3520,11,all
20_20_casillas_tseltal_2015_36,34,20,casillas_tseltal_2015,36,tomut,NA,NA,NA,egg,target,46,58,0.4423076923076923,NA,1,NA,0,NA,1,1600,240,1600,11,all
20_20_casillas_tseltal_2015_36,35,20,casillas_tseltal_2015,36,p'in,NA,NA,NA,pot-tseltal,target,63,37,0.63,NA,1,NA,0,NA,2,2120,400,2120,11,all
20_20_casillas_tseltal_2015_36,36,20,casillas_tseltal_2015,36,tzek',NA,NA,NA,skirt-tseltal,distractor,82,22,0.7884615384615384,NA,1,1,NA,615,1,3280,3280,3280,11,all
20_20_casillas_tseltal_2015_36,37,20,casillas_tseltal_2015,36,ich,NA,NA,NA,chile,distractor,54,42,0.5625,NA,1,1,NA,265,1,2160,2160,2160,11,all
20_20_casillas_tseltal_2015_36,38,20,casillas_tseltal_2015,36,mes,NA,NA,NA,broom,target,56,48,0.5384615384615384,NA,1,NA,1,NA,1,2240,2240,2240,11,all
20_20_casillas_tseltal_2015_36,39,20,casillas_tseltal_2015,36,machit,NA,NA,NA,machete,distractor,35,68,0.33980582524271846,NA,1,1,NA,665,2,1400,1400,1400,11,all
20_20_casillas_tseltal_2015_36,40,20,casillas_tseltal_2015,36,si',NA,NA,NA,firewood,target,77,28,0.7333333333333333,NA,1,NA,1,NA,1,3080,3080,3080,11,all
21_21_casillas_tseltal_2015_26,1,21,casillas_tseltal_2015,26,lo'bal,NA,NA,NA,banana,target,74,29,0.7184466019417476,NA,2,NA,1,NA,2,1480,2440,2440,1,all
21_21_casillas_tseltal_2015_26,8,21,casillas_tseltal_2015,26,xila,NA,NA,NA,chair,distractor,0,103,0,NA,NA,0,NA,NA,0,NA,NA,NA,1,all
21_21_casillas_tseltal_2015_26,13,21,casillas_tseltal_2015,26,wa,NA,NA,NA,tortilla,target,66,36,0.6470588235294118,NA,1,NA,1,NA,1,2240,2240,2240,1,all
21_21_casillas_tseltal_2015_26,14,21,casillas_tseltal_2015,26,moch,NA,NA,NA,basket-tseltal,target,104,0,1,NA,2,NA,1,NA,0,2080,2880,2880,1,all
21_21_casillas_tseltal_2015_26,15,21,casillas_tseltal_2015,26,pelota,NA,NA,NA,ball,target,106,0,1,NA,1,NA,1,NA,0,4240,4240,4240,1,all
21_21_casillas_tseltal_2015_26,16,21,casillas_tseltal_2015,26,chojak',NA,NA,NA,purse-tseltal,target,101,0,1,NA,2,NA,1,NA,0,2020,2880,2880,1,all
21_21_casillas_tseltal_2015_26,17,21,casillas_tseltal_2015,26,baso,NA,NA,NA,cup,distractor,0,103,0,NA,NA,0,NA,NA,0,NA,NA,NA,1,all
21_21_casillas_tseltal_2015_26,18,21,casillas_tseltal_2015,26,nichim,NA,NA,NA,flower,target,106,0,1,NA,1,NA,1,NA,0,4240,4240,4240,1,all
21_21_casillas_tseltal_2015_26,19,21,casillas_tseltal_2015,26,balti,NA,NA,NA,bucket,target,106,0,1,NA,1,NA,1,NA,0,4240,4240,4240,1,all
21_21_casillas_tseltal_2015_26,20,21,casillas_tseltal_2015,26,mut,NA,NA,NA,chicken,target,74,29,0.7184466019417476,NA,2,NA,0,NA,2,1480,1040,1920,1,all
21_21_casillas_tseltal_2015_26,21,21,casillas_tseltal_2015,26,k'ajk',NA,NA,NA,fire,target,27,77,0.25961538461538464,NA,1,NA,0,NA,1,1080,1080,1080,1,all
21_21_casillas_tseltal_2015_26,22,21,casillas_tseltal_2015,26,mexa,NA,NA,NA,table,distractor,0,106,0,NA,NA,0,NA,NA,0,NA,NA,NA,1,all
21_21_casillas_tseltal_2015_26,23,21,casillas_tseltal_2015,26,xawin,NA,NA,NA,cat,target,106,0,1,NA,1,NA,1,NA,0,4240,4240,4240,1,all
21_21_casillas_tseltal_2015_26,24,21,casillas_tseltal_2015,26,ja',NA,NA,NA,water,target,44,56,0.44,NA,1,NA,0,NA,1,1760,1760,1760,1,all
21_21_casillas_tseltal_2015_26,25,21,casillas_tseltal_2015,26,ixim,NA,NA,NA,corn,target,104,0,1,NA,1,NA,1,NA,0,4160,4160,4160,1,all
21_21_casillas_tseltal_2015_26,26,21,casillas_tseltal_2015,26,karo,NA,NA,NA,car,distractor,61,43,0.5865384615384616,NA,1,1,NA,1140,1,2440,2440,2440,1,all
21_21_casillas_tseltal_2015_26,27,21,casillas_tseltal_2015,26,bojch,NA,NA,NA,bowl-tseltal,target,72,0,1,NA,2,NA,1,NA,0,1440,1280,1600,1,all
21_21_casillas_tseltal_2015_26,28,21,casillas_tseltal_2015,26,na,NA,NA,NA,house,target,106,0,1,NA,1,NA,1,NA,0,4240,4240,4240,1,all
21_21_casillas_tseltal_2015_26,29,21,casillas_tseltal_2015,26,te,NA,NA,NA,tree,target,106,0,1,NA,1,NA,1,NA,0,4240,4240,4240,1,all
21_21_casillas_tseltal_2015_26,30,21,casillas_tseltal_2015,26,waybal,NA,NA,NA,bed,target,106,0,1,NA,1,NA,1,NA,0,4240,4240,4240,1,all
21_21_casillas_tseltal_2015_26,31,21,casillas_tseltal_2015,26,t'inel,NA,NA,NA,doorway,distractor,69,35,0.6634615384615384,NA,1,1,NA,940,1,2760,2760,2760,1,all
21_21_casillas_tseltal_2015_26,32,21,casillas_tseltal_2015,26,chenek',NA,NA,NA,bean,distractor,0,106,0,NA,NA,0,NA,NA,0,NA,NA,NA,1,all
21_21_casillas_tseltal_2015_26,33,21,casillas_tseltal_2015,26,tz'i,NA,NA,NA,dog,distractor,70,34,0.6730769230769231,NA,1,1,NA,365,2,2720,2720,2720,1,all
21_21_casillas_tseltal_2015_26,34,21,casillas_tseltal_2015,26,tomut,NA,NA,NA,egg,target,102,0,1,NA,2,NA,1,NA,0,2040,2480,2480,1,all
21_21_casillas_tseltal_2015_26,35,21,casillas_tseltal_2015,26,p'in,NA,NA,NA,pot-tseltal,distractor,0,106,0,NA,NA,0,NA,NA,0,NA,NA,NA,1,all
21_21_casillas_tseltal_2015_26,36,21,casillas_tseltal_2015,26,tzek',NA,NA,NA,skirt-tseltal,distractor,0,106,0,NA,NA,0,NA,NA,0,NA,NA,NA,1,all
21_21_casillas_tseltal_2015_26,37,21,casillas_tseltal_2015,26,ich,NA,NA,NA,chile,distractor,0,100,0,NA,NA,0,NA,NA,0,NA,NA,NA,1,all
21_21_casillas_tseltal_2015_26,38,21,casillas_tseltal_2015,26,mes,NA,NA,NA,broom,target,106,0,1,NA,1,NA,1,NA,0,4240,4240,4240,1,all
21_21_casillas_tseltal_2015_26,39,21,casillas_tseltal_2015,26,machit,NA,NA,NA,machete,distractor,0,106,0,NA,NA,0,NA,NA,0,NA,NA,NA,1,all
21_21_casillas_tseltal_2015_26,40,21,casillas_tseltal_2015,26,si',NA,NA,NA,firewood,distractor,0,106,0,NA,NA,0,NA,NA,0,NA,NA,NA,1,all
22_22_casillas_tseltal_2015_36,1,22,casillas_tseltal_2015,36,lo'bal,NA,NA,NA,banana,target,106,0,1,NA,1,NA,1,NA,0,4240,4240,4240,11,all
22_22_casillas_tseltal_2015_36,8,22,casillas_tseltal_2015,36,xila,NA,NA,NA,chair,distractor,0,106,0,NA,NA,0,NA,NA,0,NA,NA,NA,11,all
22_22_casillas_tseltal_2015_36,13,22,casillas_tseltal_2015,36,wa,NA,NA,NA,tortilla,distractor,20,82,0.19607843137254902,NA,1,1,NA,465,2,800,800,800,11,all
22_22_casillas_tseltal_2015_36,14,22,casillas_tseltal_2015,36,moch,NA,NA,NA,basket-tseltal,target,106,0,1,NA,1,NA,1,NA,0,4240,4240,4240,11,all
22_22_casillas_tseltal_2015_36,15,22,casillas_tseltal_2015,36,pelota,NA,NA,NA,ball,distractor,19,83,0.18627450980392157,NA,1,1,NA,140,1,760,760,760,11,all
22_22_casillas_tseltal_2015_36,16,22,casillas_tseltal_2015,36,chojak',NA,NA,NA,purse-tseltal,target,98,0,1,NA,2,NA,1,NA,0,1960,2240,2240,11,all
22_22_casillas_tseltal_2015_36,17,22,casillas_tseltal_2015,36,baso,NA,NA,NA,cup,target,106,0,1,NA,1,NA,1,NA,0,4240,4240,4240,11,all
22_22_casillas_tseltal_2015_36,18,22,casillas_tseltal_2015,36,nichim,NA,NA,NA,flower,target,99,0,1,NA,2,NA,1,NA,0,1980,1720,2240,11,all
22_22_casillas_tseltal_2015_36,19,22,casillas_tseltal_2015,36,balti,NA,NA,NA,bucket,target,71,20,0.7802197802197802,NA,2,NA,1,NA,2,1420,2360,2360,11,all
22_22_casillas_tseltal_2015_36,20,22,casillas_tseltal_2015,36,mut,NA,NA,NA,chicken,distractor,34,70,0.3269230769230769,NA,1,0,NA,NA,1,1360,1360,1360,11,all
22_22_casillas_tseltal_2015_36,21,22,casillas_tseltal_2015,36,k'ajk',NA,NA,NA,fire,target,13,92,0.12380952380952381,NA,1,NA,0,NA,1,520,520,520,11,all
22_22_casillas_tseltal_2015_36,22,22,casillas_tseltal_2015,36,mexa,NA,NA,NA,table,target,19,85,0.18269230769230768,NA,1,NA,0,NA,1,760,760,760,11,all
22_22_casillas_tseltal_2015_36,23,22,casillas_tseltal_2015,36,xawin,NA,NA,NA,cat,target,54,42,0.5625,NA,1,NA,0,NA,1,2160,2160,2160,11,all
22_22_casillas_tseltal_2015_36,24,22,casillas_tseltal_2015,36,ja',NA,NA,NA,water,target,21,84,0.2,NA,1,NA,0,NA,1,840,840,840,11,all
22_22_casillas_tseltal_2015_36,25,22,casillas_tseltal_2015,36,ixim,NA,NA,NA,corn,target,33,63,0.34375,NA,1,NA,0,NA,1,1040,1040,1040,11,all
22_22_casillas_tseltal_2015_36,26,22,casillas_tseltal_2015,36,karo,NA,NA,NA,car,target,46,45,0.5054945054945055,NA,1,NA,0,NA,1,1520,1520,1520,11,all
22_22_casillas_tseltal_2015_36,27,22,casillas_tseltal_2015,36,bojch,NA,NA,NA,bowl-tseltal,target,106,0,1,NA,1,NA,1,NA,0,4240,4240,4240,11,all
22_22_casillas_tseltal_2015_36,28,22,casillas_tseltal_2015,36,na,NA,NA,NA,house,distractor,55,50,0.5238095238095238,NA,1,1,NA,1290,1,2200,2200,2200,11,all
22_22_casillas_tseltal_2015_36,29,22,casillas_tseltal_2015,36,te,NA,NA,NA,tree,target,106,0,1,NA,1,NA,1,NA,0,4240,4240,4240,11,all
22_22_casillas_tseltal_2015_36,30,22,casillas_tseltal_2015,36,waybal,NA,NA,NA,bed,distractor,0,106,0,NA,NA,0,NA,NA,0,NA,NA,NA,11,all
22_22_casillas_tseltal_2015_36,31,22,casillas_tseltal_2015,36,t'inel,NA,NA,NA,doorway,distractor,0,101,0,NA,NA,0,NA,NA,0,NA,NA,NA,11,all
22_22_casillas_tseltal_2015_36,32,22,casillas_tseltal_2015,36,chenek',NA,NA,NA,bean,distractor,63,42,0.6,NA,1,1,NA,1090,1,2520,2520,2520,11,all
22_22_casillas_tseltal_2015_36,33,22,casillas_tseltal_2015,36,tz'i,NA,NA,NA,dog,distractor,79,26,0.7523809523809524,NA,1,1,NA,690,1,3160,3160,3160,11,all
22_22_casillas_tseltal_2015_36,34,22,casillas_tseltal_2015,36,tomut,NA,NA,NA,egg,target,106,0,1,NA,1,NA,1,NA,0,4240,4240,4240,11,all
22_22_casillas_tseltal_2015_36,35,22,casillas_tseltal_2015,36,p'in,NA,NA,NA,pot-tseltal,target,20,83,0.1941747572815534,NA,1,NA,0,NA,1,720,720,720,11,all
22_22_casillas_tseltal_2015_36,36,22,casillas_tseltal_2015,36,tzek',NA,NA,NA,skirt-tseltal,distractor,0,106,0,NA,NA,0,NA,NA,0,NA,NA,NA,11,all
22_22_casillas_tseltal_2015_36,37,22,casillas_tseltal_2015,36,ich,NA,NA,NA,chile,distractor,2,102,0.019230769230769232,NA,NA,0,NA,NA,0,NA,NA,NA,11,all
22_22_casillas_tseltal_2015_36,38,22,casillas_tseltal_2015,36,mes,NA,NA,NA,broom,target,106,0,1,NA,1,NA,1,NA,0,4240,4240,4240,11,all
22_22_casillas_tseltal_2015_36,39,22,casillas_tseltal_2015,36,machit,NA,NA,NA,machete,neither,55,31,0.6395348837209303,NA,1,NA,NA,NA,1,2200,2200,2200,11,all
22_22_casillas_tseltal_2015_36,40,22,casillas_tseltal_2015,36,si',NA,NA,NA,firewood,distractor,40,64,0.38461538461538464,NA,1,0,NA,NA,1,1600,1600,1600,11,all
23_23_ronfard_2021_22,1,23,ronfard_2021,22,dog,dog,cat,cat-dog,dog,target,37,0,1,0.10344827586206895,1,NA,1,NA,0,1233.3333333333335,1233.3333333333335,1233.3333333333335,-3,all
23_23_ronfard_2021_22,3,23,ronfard_2021,22,car,car,shoe,car-shoe,car,distractor,47,7,0.8703703703703703,0.38649425287356315,1,1,NA,290,0,1566.6666666666667,1566.6666666666667,1566.6666666666667,-3,all
23_23_ronfard_2021_22,7,23,ronfard_2021,22,shoe,shoe,car,car-shoe,shoe,distractor,33,23,0.5892857142857143,0.39655172413793105,1,1,NA,640,1,1100,1100,1100,-3,all
23_23_ronfard_2021_22,8,23,ronfard_2021,22,cat,cat,dog,cat-dog,cat,distractor,22,32,0.4074074074074074,0.17241379310344826,1,1,NA,915,1,733.3333333333334,733.3333333333334,733.3333333333334,-3,all
23_23_ronfard_2021_22,10,23,ronfard_2021,22,baby,baby,birdie,baby-birdie,baby,target,22,30,0.4230769230769231,0.23706896551724138,1,NA,0,NA,1,633.3333333333334,633.3333333333334,633.3333333333334,-3,all
23_23_ronfard_2021_22,15,23,ronfard_2021,22,birdie,birdie,baby,baby-birdie,birdie,distractor,34,21,0.6181818181818182,0.2844827586206896,1,1,NA,615,1,1133.3333333333335,1133.3333333333335,1133.3333333333335,-3,all
23_23_ronfard_2021_22,16,23,ronfard_2021,22,ball,ball,book,ball-book,ball,distractor,27,28,0.4909090909090909,0.18103448275862066,1,1,NA,790,1,900.0000000000001,900.0000000000001,900.0000000000001,-3,all
23_23_ronfard_2021_22,17,23,ronfard_2021,22,car,car,shoe,car-shoe,car,distractor,43,12,0.7818181818181819,0.38649425287356315,1,1,NA,390,1,1433.3333333333335,1433.3333333333335,1433.3333333333335,-3,all
23_23_ronfard_2021_22,19,23,ronfard_2021,22,baby,baby,birdie,baby-birdie,baby,target,58,0,1,0.23706896551724138,1,NA,1,NA,0,1933.3333333333335,1933.3333333333335,1933.3333333333335,-3,all
23_23_ronfard_2021_22,22,23,ronfard_2021,22,book,book,ball,ball-book,book,distractor,0,58,0,0.22988505747126436,NA,0,NA,NA,0,NA,NA,NA,-3,all
23_23_ronfard_2021_22,23,23,ronfard_2021,22,ball,ball,book,ball-book,ball,target,40,14,0.7407407407407407,0.18103448275862066,1,NA,0,NA,1,1033.3333333333335,1033.3333333333335,1033.3333333333335,-3,all
23_23_ronfard_2021_22,26,23,ronfard_2021,22,car,car,shoe,car-shoe,car,distractor,35,20,0.6363636363636364,0.38649425287356315,1,1,NA,590,1,1166.6666666666667,1166.6666666666667,1166.6666666666667,-3,all
23_23_ronfard_2021_22,27,23,ronfard_2021,22,shoe,shoe,car,car-shoe,shoe,distractor,46,7,0.8679245283018868,0.39655172413793105,1,1,NA,315,1,1533.3333333333335,1533.3333333333335,1533.3333333333335,-3,all
23_23_ronfard_2021_22,30,23,ronfard_2021,22,dog,dog,cat,cat-dog,dog,distractor,51,4,0.9272727272727272,0.10344827586206895,1,1,NA,190,0,1700.0000000000002,1700.0000000000002,1700.0000000000002,-3,all
23_23_ronfard_2021_22,37,23,ronfard_2021,22,birdie,birdie,baby,baby-birdie,birdie,distractor,27,24,0.5294117647058824,0.2844827586206896,1,1,NA,440,2,900.0000000000001,900.0000000000001,900.0000000000001,-3,all
23_23_ronfard_2021_22,39,23,ronfard_2021,22,dog,dog,cat,cat-dog,dog,target,58,0,1,0.10344827586206895,1,NA,1,NA,0,1933.3333333333335,1933.3333333333335,1933.3333333333335,-3,all
23_23_ronfard_2021_22,51,23,ronfard_2021,22,shoe,shoe,car,car-shoe,shoe,target,7,47,0.12962962962962962,0.39655172413793105,NA,NA,0,NA,0,NA,233.33333333333334,NA,-3,all
23_23_ronfard_2021_22,53,23,ronfard_2021,22,book,book,ball,ball-book,book,target,58,0,1,0.22988505747126436,1,NA,1,NA,0,1933.3333333333335,1933.3333333333335,1933.3333333333335,-3,all
23_23_ronfard_2021_22,54,23,ronfard_2021,22,cat,cat,dog,cat-dog,cat,distractor,0,58,0,0.17241379310344826,NA,0,NA,NA,0,NA,NA,NA,-3,all
23_23_ronfard_2021_22,55,23,ronfard_2021,22,baby,baby,birdie,baby-birdie,baby,target,28,26,0.5185185185185185,0.23706896551724138,1,NA,0,NA,1,900.0000000000001,900.0000000000001,900.0000000000001,-3,all
23_23_ronfard_2021_22,58,23,ronfard_2021,22,baby,baby,birdie,baby-birdie,baby,neither,37,0,1,0.23706896551724138,1,NA,NA,NA,0,1233.3333333333335,1233.3333333333335,1233.3333333333335,-3,all
23_23_ronfard_2021_22,60,23,ronfard_2021,22,dog,dog,cat,cat-dog,dog,target,58,0,1,0.10344827586206895,1,NA,1,NA,0,1933.3333333333335,1933.3333333333335,1933.3333333333335,-3,all
23_23_ronfard_2021_22,63,23,ronfard_2021,22,shoe,shoe,car,car-shoe,shoe,target,58,0,1,0.39655172413793105,1,NA,1,NA,0,1933.3333333333335,1933.3333333333335,1933.3333333333335,-3,all
23_23_ronfard_2021_22,65,23,ronfard_2021,22,book,book,ball,ball-book,book,distractor,45,11,0.8035714285714286,0.22988505747126436,1,1,NA,340,1,1500,1500,1500,-3,all
24_24_ronfard_2021_19,1,24,ronfard_2021,19,dog,dog,cat,cat-dog,dog,distractor,2,52,0.037037037037037035,0.051724137931034586,NA,1,NA,1415,0,NA,NA,NA,-6,all
24_24_ronfard_2021_19,3,24,ronfard_2021,19,car,car,shoe,car-shoe,car,distractor,51,4,0.9272727272727272,0.31465517241379315,1,1,NA,190,0,1700.0000000000002,1700.0000000000002,1700.0000000000002,-6,all
24_24_ronfard_2021_19,4,24,ronfard_2021,19,book,book,ball,ball-book,book,distractor,22,33,0.4,0.24137931034482757,1,1,NA,915,1,733.3333333333334,733.3333333333334,733.3333333333334,-6,all
24_24_ronfard_2021_19,8,24,ronfard_2021,19,cat,cat,dog,cat-dog,cat,distractor,11,44,0.2,0.09482758620689657,NA,1,NA,1190,0,NA,366.6666666666667,NA,-6,all
24_24_ronfard_2021_19,10,24,ronfard_2021,19,baby,baby,birdie,baby-birdie,baby,target,58,0,1,0.6192528735632183,1,NA,1,NA,0,1933.3333333333335,1933.3333333333335,1933.3333333333335,-6,all
24_24_ronfard_2021_19,15,24,ronfard_2021,19,birdie,birdie,baby,baby-birdie,birdie,distractor,38,17,0.6909090909090909,0.7413793103448276,1,1,NA,40,1,1266.6666666666667,1266.6666666666667,1266.6666666666667,-6,all
24_24_ronfard_2021_19,16,24,ronfard_2021,19,ball,ball,book,ball-book,ball,target,58,0,1,0.1724137931034483,1,NA,1,NA,0,1933.3333333333335,1933.3333333333335,1933.3333333333335,-6,all
24_24_ronfard_2021_19,17,24,ronfard_2021,19,car,car,shoe,car-shoe,car,target,58,0,1,0.31465517241379315,1,NA,1,NA,0,1933.3333333333335,1933.3333333333335,1933.3333333333335,-6,all
24_24_ronfard_2021_19,19,24,ronfard_2021,19,baby,baby,birdie,baby-birdie,baby,target,58,0,1,0.6192528735632183,1,NA,1,NA,0,1933.3333333333335,1933.3333333333335,1933.3333333333335,-6,all
24_24_ronfard_2021_19,23,24,ronfard_2021,19,ball,ball,book,ball-book,ball,neither,30,9,0.7692307692307693,0.1724137931034483,1,NA,NA,NA,1,1000.0000000000001,1000.0000000000001,1000.0000000000001,-6,all
24_24_ronfard_2021_19,26,24,ronfard_2021,19,car,car,shoe,car-shoe,car,target,58,0,1,0.31465517241379315,1,NA,1,NA,0,1933.3333333333335,1933.3333333333335,1933.3333333333335,-6,all
24_24_ronfard_2021_19,27,24,ronfard_2021,19,shoe,shoe,car,car-shoe,shoe,distractor,30,25,0.5454545454545454,0.26724137931034486,1,1,NA,715,1,1000.0000000000001,1000.0000000000001,1000.0000000000001,-6,all
