recording_name,trial_number,subject_id,dataset_name,age_months,target_word,media_name,initial_look,samples_target,samples_distractor,prop_looking,prop_looking_diff,number_fixations,correct_shift,remain_on_target,latency_to_switch,total_aoi_switches,duration_of_look,first_look_dur,longest_look_by_trial,age_months_centred,data_split
0_0_casillas_tseltal_2015_14,6,0,casillas_tseltal_2015,14,nichim,flower,target,106,0,1,NA,1,NA,1,NA,0,4240,4240,4240,-11,target
0_0_casillas_tseltal_2015_14,8,0,casillas_tseltal_2015,14,mut,chicken,target,106,0,1,NA,1,NA,1,NA,0,4240,4240,4240,-11,target
0_0_casillas_tseltal_2015_14,9,0,casillas_tseltal_2015,14,k'ajk',fire,target,13,93,0.12264150943396226,NA,1,NA,0,NA,1,520,520,520,-11,target
0_0_casillas_tseltal_2015_14,10,0,casillas_tseltal_2015,14,mexa,table,target,106,0,1,NA,1,NA,1,NA,0,4240,4240,4240,-11,target
0_0_casillas_tseltal_2015_14,13,0,casillas_tseltal_2015,14,ixim,corn,target,96,8,0.9230769230769231,NA,2,NA,0,NA,0,1920,1600,2240,-11,target
0_0_casillas_tseltal_2015_14,14,0,casillas_tseltal_2015,14,karo,car,target,106,0,1,NA,1,NA,1,NA,0,4240,4240,4240,-11,target
0_0_casillas_tseltal_2015_14,16,0,casillas_tseltal_2015,14,te,tree,target,16,88,0.15384615384615385,NA,1,NA,0,NA,1,640,640,640,-11,target
0_0_casillas_tseltal_2015_14,17,0,casillas_tseltal_2015,14,waybal,bed,target,106,0,1,NA,1,NA,1,NA,0,4240,4240,4240,-11,target
0_0_casillas_tseltal_2015_14,19,0,casillas_tseltal_2015,14,lo'bal,banana,target,35,69,0.33653846153846156,NA,1,NA,0,NA,1,1400,1400,1400,-11,target
0_0_casillas_tseltal_2015_14,20,0,casillas_tseltal_2015,14,chenek',bean,target,70,34,0.6730769230769231,NA,1,NA,1,NA,1,2800,2800,2800,-11,target
0_0_casillas_tseltal_2015_14,23,0,casillas_tseltal_2015,14,p'in,pot-tseltal,target,106,0,1,NA,1,NA,1,NA,0,4240,4240,4240,-11,target
0_0_casillas_tseltal_2015_14,24,0,casillas_tseltal_2015,14,tzek',skirt-tseltal,target,106,0,1,NA,1,NA,1,NA,0,4240,4240,4240,-11,target
0_0_casillas_tseltal_2015_14,25,0,casillas_tseltal_2015,14,ich,chile,target,38,66,0.36538461538461536,NA,1,NA,0,NA,1,1520,1520,1520,-11,target
0_0_casillas_tseltal_2015_14,26,0,casillas_tseltal_2015,14,xila,chair,target,40,64,0.38461538461538464,NA,1,NA,0,NA,1,1600,1600,1600,-11,target
1_1_casillas_tseltal_2015_22,1,1,casillas_tseltal_2015,22,wa,tortilla,target,70,35,0.6666666666666666,NA,2,NA,0,NA,2,1400,720,2080,-3,target
1_1_casillas_tseltal_2015_22,3,1,casillas_tseltal_2015,22,pelota,ball,target,106,0,1,NA,1,NA,1,NA,0,4240,4240,4240,-3,target
1_1_casillas_tseltal_2015_22,4,1,casillas_tseltal_2015,22,chojak',purse-tseltal,target,27,76,0.2621359223300971,NA,1,NA,0,NA,1,1080,1080,1080,-3,target
1_1_casillas_tseltal_2015_22,6,1,casillas_tseltal_2015,22,nichim,flower,target,64,40,0.6153846153846154,NA,1,NA,1,NA,1,2560,2560,2560,-3,target
1_1_casillas_tseltal_2015_22,9,1,casillas_tseltal_2015,22,k'ajk',fire,target,106,0,1,NA,1,NA,1,NA,0,4240,4240,4240,-3,target
1_1_casillas_tseltal_2015_22,14,1,casillas_tseltal_2015,22,karo,car,target,77,24,0.7623762376237624,NA,2,NA,0,NA,2,1540,960,2120,-3,target
1_1_casillas_tseltal_2015_22,19,1,casillas_tseltal_2015,22,lo'bal,banana,target,106,0,1,NA,1,NA,1,NA,0,4240,4240,4240,-3,target
1_1_casillas_tseltal_2015_22,21,1,casillas_tseltal_2015,22,tz'i,dog,target,106,0,1,NA,1,NA,1,NA,0,4240,4240,4240,-3,target
1_1_casillas_tseltal_2015_22,23,1,casillas_tseltal_2015,22,p'in,pot-tseltal,target,41,58,0.41414141414141414,NA,1,NA,0,NA,1,1240,400,1240,-3,target
1_1_casillas_tseltal_2015_22,24,1,casillas_tseltal_2015,22,tzek',skirt-tseltal,target,106,0,1,NA,1,NA,1,NA,0,4240,4240,4240,-3,target
2_2_casillas_tseltal_2015_45,1,2,casillas_tseltal_2015,45,wa,tortilla,target,37,55,0.40217391304347827,NA,1,NA,0,NA,3,640,440,640,20,target
2_2_casillas_tseltal_2015_45,3,2,casillas_tseltal_2015,45,pelota,ball,target,74,17,0.8131868131868132,NA,2,NA,1,NA,2,1480,2240,2240,20,target
2_2_casillas_tseltal_2015_45,6,2,casillas_tseltal_2015,45,nichim,flower,target,85,17,0.8333333333333334,NA,2,NA,1,NA,2,1700,2160,2160,20,target
2_2_casillas_tseltal_2015_45,8,2,casillas_tseltal_2015,45,mut,chicken,target,62,38,0.62,NA,2,NA,0,NA,2,1240,1520,1520,20,target
2_2_casillas_tseltal_2015_45,10,2,casillas_tseltal_2015,45,mexa,table,target,82,16,0.8367346938775511,NA,1,NA,0,NA,0,3280,3280,3280,20,target
2_2_casillas_tseltal_2015_45,11,2,casillas_tseltal_2015,45,xawin,cat,target,46,50,0.4791666666666667,NA,2,NA,0,NA,2,920,1000,1000,20,target
2_2_casillas_tseltal_2015_45,12,2,casillas_tseltal_2015,45,ja',water,target,44,60,0.4230769230769231,NA,2,NA,0,NA,3,880,720,1040,20,target
2_2_casillas_tseltal_2015_45,14,2,casillas_tseltal_2015,45,karo,car,target,75,24,0.7575757575757576,NA,1,NA,1,NA,1,2680,2680,2680,20,target
2_2_casillas_tseltal_2015_45,15,2,casillas_tseltal_2015,45,na,house,target,106,0,1,NA,1,NA,1,NA,0,4240,4240,4240,20,target
2_2_casillas_tseltal_2015_45,17,2,casillas_tseltal_2015,45,waybal,bed,target,106,0,1,NA,1,NA,1,NA,0,4240,4240,4240,20,target
2_2_casillas_tseltal_2015_45,18,2,casillas_tseltal_2015,45,t'inel,doorway,target,78,24,0.7647058823529411,NA,2,NA,1,NA,2,1560,2640,2640,20,target
2_2_casillas_tseltal_2015_45,20,2,casillas_tseltal_2015,45,chenek',bean,target,91,13,0.875,NA,1,NA,0,NA,1,3200,440,3200,20,target
2_2_casillas_tseltal_2015_45,21,2,casillas_tseltal_2015,45,tz'i,dog,target,56,45,0.5544554455445545,NA,2,NA,0,NA,2,1120,880,1360,20,target
2_2_casillas_tseltal_2015_45,23,2,casillas_tseltal_2015,45,p'in,pot-tseltal,target,94,10,0.9038461538461539,NA,1,NA,1,NA,0,3760,3760,3760,20,target
2_2_casillas_tseltal_2015_45,27,2,casillas_tseltal_2015,45,mes,broom,target,50,49,0.5050505050505051,NA,2,NA,0,NA,2,1000,760,1240,20,target
2_2_casillas_tseltal_2015_45,28,2,casillas_tseltal_2015,45,machit,machete,target,94,10,0.9038461538461539,NA,1,NA,1,NA,0,3760,3760,3760,20,target
3_3_casillas_tseltal_2015_22,2,3,casillas_tseltal_2015,22,moch,basket-tseltal,target,106,0,1,NA,1,NA,1,NA,0,4240,4240,4240,-3,target
3_3_casillas_tseltal_2015_22,3,3,casillas_tseltal_2015,22,pelota,ball,target,74,28,0.7254901960784313,NA,2,NA,0,NA,2,1480,1280,1680,-3,target
3_3_casillas_tseltal_2015_22,6,3,casillas_tseltal_2015,22,nichim,flower,target,89,11,0.89,NA,2,NA,0,NA,0,1780,1360,2200,-3,target
3_3_casillas_tseltal_2015_22,8,3,casillas_tseltal_2015,22,mut,chicken,target,106,0,1,NA,1,NA,1,NA,0,4240,4240,4240,-3,target
3_3_casillas_tseltal_2015_22,9,3,casillas_tseltal_2015,22,k'ajk',fire,target,10,93,0.0970873786407767,NA,NA,NA,0,NA,0,NA,240,NA,-3,target
3_3_casillas_tseltal_2015_22,10,3,casillas_tseltal_2015,22,mexa,table,target,106,0,1,NA,1,NA,1,NA,0,4240,4240,4240,-3,target
3_3_casillas_tseltal_2015_22,12,3,casillas_tseltal_2015,22,ja',water,target,98,0,1,NA,2,NA,1,NA,0,1960,2000,2000,-3,target
3_3_casillas_tseltal_2015_22,14,3,casillas_tseltal_2015,22,karo,car,target,106,0,1,NA,1,NA,1,NA,0,4240,4240,4240,-3,target
3_3_casillas_tseltal_2015_22,22,3,casillas_tseltal_2015,22,tomut,egg,target,24,73,0.24742268041237114,NA,1,NA,0,NA,2,640,320,640,-3,target
3_3_casillas_tseltal_2015_22,25,3,casillas_tseltal_2015,22,ich,chile,target,106,0,1,NA,1,NA,1,NA,0,4240,4240,4240,-3,target
3_3_casillas_tseltal_2015_22,26,3,casillas_tseltal_2015,22,xila,chair,target,106,0,1,NA,1,NA,1,NA,0,4240,4240,4240,-3,target
3_3_casillas_tseltal_2015_22,30,3,casillas_tseltal_2015,22,bojch,bowl-tseltal,target,68,35,0.6601941747572816,NA,2,NA,0,NA,3,1360,640,2080,-3,target
4_4_casillas_tseltal_2015_45,3,4,casillas_tseltal_2015,45,pelota,ball,target,37,61,0.37755102040816324,NA,2,NA,0,NA,1,740,760,760,20,target
4_4_casillas_tseltal_2015_45,6,4,casillas_tseltal_2015,45,nichim,flower,target,70,29,0.7070707070707071,NA,2,NA,0,NA,3,1400,560,2240,20,target
4_4_casillas_tseltal_2015_45,12,4,casillas_tseltal_2015,45,ja',water,target,42,63,0.4,NA,1,NA,0,NA,1,1680,1680,1680,20,target
4_4_casillas_tseltal_2015_45,14,4,casillas_tseltal_2015,45,karo,car,target,90,0,1,NA,1,NA,1,NA,0,3400,3400,3400,20,target
4_4_casillas_tseltal_2015_45,15,4,casillas_tseltal_2015,45,na,house,target,87,10,0.8969072164948454,NA,1,NA,0,NA,0,2880,400,2880,20,target
4_4_casillas_tseltal_2015_45,21,4,casillas_tseltal_2015,45,tz'i,dog,target,70,30,0.7,NA,2,NA,0,NA,2,1400,1840,1840,20,target
4_4_casillas_tseltal_2015_45,25,4,casillas_tseltal_2015,45,ich,chile,target,83,21,0.7980769230769231,NA,1,NA,1,NA,1,3320,3320,3320,20,target
4_4_casillas_tseltal_2015_45,26,4,casillas_tseltal_2015,45,xila,chair,target,32,72,0.3076923076923077,NA,1,NA,0,NA,1,1280,1280,1280,20,target
4_4_casillas_tseltal_2015_45,28,4,casillas_tseltal_2015,45,machit,machete,target,22,82,0.21153846153846154,NA,1,NA,0,NA,1,880,880,880,20,target
4_4_casillas_tseltal_2015_45,29,4,casillas_tseltal_2015,45,si',firewood,target,96,8,0.9230769230769231,NA,1,NA,1,NA,0,3840,3840,3840,20,target
5_5_casillas_tseltal_2015_27,1,5,casillas_tseltal_2015,27,wa,tortilla,target,106,0,1,NA,1,NA,1,NA,0,4240,4240,4240,2,target
5_5_casillas_tseltal_2015_27,2,5,casillas_tseltal_2015,27,moch,basket-tseltal,target,50,53,0.4854368932038835,NA,2,NA,0,NA,2,1000,1480,1480,2,target
5_5_casillas_tseltal_2015_27,3,5,casillas_tseltal_2015,27,pelota,ball,target,106,0,1,NA,1,NA,1,NA,0,4240,4240,4240,2,target
5_5_casillas_tseltal_2015_27,6,5,casillas_tseltal_2015,27,nichim,flower,target,79,24,0.7669902912621359,NA,2,NA,0,NA,2,1580,1720,1720,2,target
5_5_casillas_tseltal_2015_27,11,5,casillas_tseltal_2015,27,xawin,cat,target,41,61,0.4019607843137255,NA,1,NA,0,NA,1,1480,1480,1480,2,target
5_5_casillas_tseltal_2015_27,12,5,casillas_tseltal_2015,27,ja',water,target,106,0,1,NA,1,NA,1,NA,0,4240,4240,4240,2,target
5_5_casillas_tseltal_2015_27,13,5,casillas_tseltal_2015,27,ixim,corn,target,26,76,0.2549019607843137,NA,1,NA,0,NA,1,1040,1040,1040,2,target
5_5_casillas_tseltal_2015_27,14,5,casillas_tseltal_2015,27,karo,car,target,82,23,0.780952380952381,NA,1,NA,1,NA,1,3280,3280,3280,2,target
5_5_casillas_tseltal_2015_27,15,5,casillas_tseltal_2015,27,na,house,target,53,52,0.5047619047619047,NA,1,NA,0,NA,1,2120,2120,2120,2,target
5_5_casillas_tseltal_2015_27,17,5,casillas_tseltal_2015,27,waybal,bed,target,37,68,0.3523809523809524,NA,1,NA,0,NA,1,1480,1480,1480,2,target
5_5_casillas_tseltal_2015_27,24,5,casillas_tseltal_2015,27,tzek',skirt-tseltal,target,45,57,0.4411764705882353,NA,2,NA,0,NA,3,900,840,960,2,target
5_5_casillas_tseltal_2015_27,25,5,casillas_tseltal_2015,27,ich,chile,target,58,45,0.5631067961165048,NA,2,NA,0,NA,2,1160,1680,1680,2,target
5_5_casillas_tseltal_2015_27,27,5,casillas_tseltal_2015,27,mes,broom,target,66,39,0.6285714285714286,NA,1,NA,1,NA,1,2640,2640,2640,2,target
5_5_casillas_tseltal_2015_27,29,5,casillas_tseltal_2015,27,si',firewood,target,46,41,0.5287356321839081,NA,2,NA,0,NA,2,920,1200,1200,2,target
6_6_casillas_tseltal_2015_39,1,6,casillas_tseltal_2015,39,wa,tortilla,target,95,0,1,NA,1,NA,1,NA,0,3680,3680,3680,14,target
6_6_casillas_tseltal_2015_39,2,6,casillas_tseltal_2015,39,moch,basket-tseltal,target,103,0,1,NA,2,NA,1,NA,0,2060,2240,2240,14,target
6_6_casillas_tseltal_2015_39,3,6,casillas_tseltal_2015,39,pelota,ball,target,106,0,1,NA,1,NA,1,NA,0,4240,4240,4240,14,target
6_6_casillas_tseltal_2015_39,7,6,casillas_tseltal_2015,39,balti,bucket,target,98,5,0.9514563106796117,NA,1,NA,1,NA,0,3920,3920,3920,14,target
6_6_casillas_tseltal_2015_39,8,6,casillas_tseltal_2015,39,mut,chicken,target,106,0,1,NA,1,NA,1,NA,0,4240,4240,4240,14,target
6_6_casillas_tseltal_2015_39,9,6,casillas_tseltal_2015,39,k'ajk',fire,target,106,0,1,NA,1,NA,1,NA,0,4240,4240,4240,14,target
6_6_casillas_tseltal_2015_39,12,6,casillas_tseltal_2015,39,ja',water,target,51,53,0.49038461538461536,NA,1,NA,0,NA,1,2040,2040,2040,14,target
6_6_casillas_tseltal_2015_39,13,6,casillas_tseltal_2015,39,ixim,corn,target,106,0,1,NA,1,NA,1,NA,0,4240,4240,4240,14,target
6_6_casillas_tseltal_2015_39,15,6,casillas_tseltal_2015,39,na,house,target,13,92,0.12380952380952381,NA,1,NA,0,NA,1,520,520,520,14,target
6_6_casillas_tseltal_2015_39,19,6,casillas_tseltal_2015,39,lo'bal,banana,target,106,0,1,NA,1,NA,1,NA,0,4240,4240,4240,14,target
6_6_casillas_tseltal_2015_39,21,6,casillas_tseltal_2015,39,tz'i,dog,target,63,34,0.6494845360824743,NA,2,NA,0,NA,2,1260,1480,1480,14,target
6_6_casillas_tseltal_2015_39,26,6,casillas_tseltal_2015,39,xila,chair,target,102,0,1,NA,2,NA,1,NA,0,2040,3440,3440,14,target
6_6_casillas_tseltal_2015_39,27,6,casillas_tseltal_2015,39,mes,broom,target,106,0,1,NA,1,NA,1,NA,0,4240,4240,4240,14,target
7_7_casillas_tseltal_2015_25,5,7,casillas_tseltal_2015,25,baso,cup,target,106,0,1,NA,1,NA,1,NA,0,4240,4240,4240,0,target
7_7_casillas_tseltal_2015_25,6,7,casillas_tseltal_2015,25,nichim,flower,target,106,0,1,NA,1,NA,1,NA,0,4240,4240,4240,0,target
7_7_casillas_tseltal_2015_25,10,7,casillas_tseltal_2015,25,mexa,table,target,85,21,0.8018867924528302,NA,1,NA,1,NA,1,3400,3400,3400,0,target
7_7_casillas_tseltal_2015_25,11,7,casillas_tseltal_2015,25,xawin,cat,target,106,0,1,NA,1,NA,1,NA,0,4240,4240,4240,0,target
7_7_casillas_tseltal_2015_25,12,7,casillas_tseltal_2015,25,ja',water,target,106,0,1,NA,1,NA,1,NA,0,4240,4240,4240,0,target
7_7_casillas_tseltal_2015_25,13,7,casillas_tseltal_2015,25,ixim,corn,target,106,0,1,NA,1,NA,1,NA,0,4240,4240,4240,0,target
7_7_casillas_tseltal_2015_25,14,7,casillas_tseltal_2015,25,karo,car,target,106,0,1,NA,1,NA,1,NA,0,4240,4240,4240,0,target
7_7_casillas_tseltal_2015_25,17,7,casillas_tseltal_2015,25,waybal,bed,target,106,0,1,NA,1,NA,1,NA,0,4240,4240,4240,0,target
7_7_casillas_tseltal_2015_25,18,7,casillas_tseltal_2015,25,t'inel,doorway,target,99,0,1,NA,1,NA,1,NA,0,3960,3960,3960,0,target
7_7_casillas_tseltal_2015_25,21,7,casillas_tseltal_2015,25,tz'i,dog,target,106,0,1,NA,1,NA,1,NA,0,4240,4240,4240,0,target
7_7_casillas_tseltal_2015_25,23,7,casillas_tseltal_2015,25,p'in,pot-tseltal,target,3,101,0.028846153846153848,NA,NA,NA,0,NA,0,NA,NA,NA,0,target
7_7_casillas_tseltal_2015_25,24,7,casillas_tseltal_2015,25,tzek',skirt-tseltal,target,103,0,1,NA,2,NA,1,NA,0,2060,3280,3280,0,target
7_7_casillas_tseltal_2015_25,25,7,casillas_tseltal_2015,25,ich,chile,target,106,0,1,NA,1,NA,1,NA,0,4240,4240,4240,0,target
7_7_casillas_tseltal_2015_25,26,7,casillas_tseltal_2015,25,xila,chair,target,106,0,1,NA,1,NA,1,NA,0,4240,4240,4240,0,target
7_7_casillas_tseltal_2015_25,28,7,casillas_tseltal_2015,25,machit,machete,target,106,0,1,NA,1,NA,1,NA,0,4240,4240,4240,0,target
7_7_casillas_tseltal_2015_25,29,7,casillas_tseltal_2015,25,si',firewood,target,106,0,1,NA,1,NA,1,NA,0,4240,4240,4240,0,target
7_7_casillas_tseltal_2015_25,30,7,casillas_tseltal_2015,25,bojch,bowl-tseltal,target,106,0,1,NA,1,NA,1,NA,0,4240,4240,4240,0,target
8_8_casillas_tseltal_2015_14,2,8,casillas_tseltal_2015,14,moch,basket-tseltal,target,40,62,0.39215686274509803,NA,1,NA,0,NA,1,1160,440,1160,-11,target
8_8_casillas_tseltal_2015_14,3,8,casillas_tseltal_2015,14,pelota,ball,target,106,0,1,NA,1,NA,1,NA,0,4240,4240,4240,-11,target
8_8_casillas_tseltal_2015_14,4,8,casillas_tseltal_2015,14,chojak',purse-tseltal,target,6,98,0.057692307692307696,NA,NA,NA,0,NA,0,NA,240,NA,-11,target
8_8_casillas_tseltal_2015_14,6,8,casillas_tseltal_2015,14,nichim,flower,target,96,10,0.9056603773584906,NA,1,NA,1,NA,0,3840,3840,3840,-11,target
8_8_casillas_tseltal_2015_14,7,8,casillas_tseltal_2015,14,balti,bucket,target,106,0,1,NA,1,NA,1,NA,0,4240,4240,4240,-11,target
8_8_casillas_tseltal_2015_14,9,8,casillas_tseltal_2015,14,k'ajk',fire,target,106,0,1,NA,1,NA,1,NA,0,4240,4240,4240,-11,target
8_8_casillas_tseltal_2015_14,11,8,casillas_tseltal_2015,14,xawin,cat,target,106,0,1,NA,1,NA,1,NA,0,4240,4240,4240,-11,target
8_8_casillas_tseltal_2015_14,13,8,casillas_tseltal_2015,14,ixim,corn,target,44,61,0.41904761904761906,NA,2,NA,0,NA,2,880,840,920,-11,target
8_8_casillas_tseltal_2015_14,19,8,casillas_tseltal_2015,14,lo'bal,banana,target,106,0,1,NA,1,NA,1,NA,0,4240,4240,4240,-11,target
8_8_casillas_tseltal_2015_14,21,8,casillas_tseltal_2015,14,tz'i,dog,target,71,35,0.6698113207547169,NA,1,NA,1,NA,1,2440,2440,2440,-11,target
8_8_casillas_tseltal_2015_14,27,8,casillas_tseltal_2015,14,mes,broom,target,45,44,0.5056179775280899,NA,1,NA,0,NA,1,1800,1800,1800,-11,target
8_8_casillas_tseltal_2015_14,30,8,casillas_tseltal_2015,14,bojch,bowl-tseltal,target,106,0,1,NA,1,NA,1,NA,0,4240,4240,4240,-11,target
9_9_casillas_tseltal_2015_42,1,9,casillas_tseltal_2015,42,wa,tortilla,target,106,0,1,NA,1,NA,1,NA,0,4240,4240,4240,17,target
9_9_casillas_tseltal_2015_42,2,9,casillas_tseltal_2015,42,moch,basket-tseltal,target,77,28,0.7333333333333333,NA,1,NA,1,NA,1,3080,3080,3080,17,target
9_9_casillas_tseltal_2015_42,3,9,casillas_tseltal_2015,42,pelota,ball,target,72,31,0.6990291262135923,NA,1,NA,1,NA,1,2880,2880,2880,17,target
9_9_casillas_tseltal_2015_42,6,9,casillas_tseltal_2015,42,nichim,flower,target,71,29,0.71,NA,2,NA,0,NA,2,1420,2000,2000,17,target
9_9_casillas_tseltal_2015_42,8,9,casillas_tseltal_2015,42,mut,chicken,target,106,0,1,NA,1,NA,1,NA,0,4240,4240,4240,17,target
9_9_casillas_tseltal_2015_42,11,9,casillas_tseltal_2015,42,xawin,cat,target,72,29,0.7128712871287128,NA,1,NA,1,NA,1,2680,2680,2680,17,target
9_9_casillas_tseltal_2015_42,13,9,casillas_tseltal_2015,42,ixim,corn,target,71,30,0.7029702970297029,NA,2,NA,0,NA,2,1420,760,2080,17,target
9_9_casillas_tseltal_2015_42,16,9,casillas_tseltal_2015,42,te,tree,target,39,63,0.38235294117647056,NA,1,NA,0,NA,1,1120,440,1120,17,target
9_9_casillas_tseltal_2015_42,17,9,casillas_tseltal_2015,42,waybal,bed,target,11,92,0.10679611650485436,NA,NA,NA,0,NA,0,NA,440,NA,17,target
9_9_casillas_tseltal_2015_42,19,9,casillas_tseltal_2015,42,lo'bal,banana,target,71,32,0.6893203883495146,NA,2,NA,0,NA,2,1420,1600,1600,17,target
9_9_casillas_tseltal_2015_42,21,9,casillas_tseltal_2015,42,tz'i,dog,target,106,0,1,NA,1,NA,1,NA,0,4240,4240,4240,17,target
9_9_casillas_tseltal_2015_42,22,9,casillas_tseltal_2015,42,tomut,egg,target,69,35,0.6634615384615384,NA,1,NA,1,NA,1,2760,2760,2760,17,target
9_9_casillas_tseltal_2015_42,25,9,casillas_tseltal_2015,42,ich,chile,target,40,60,0.4,NA,1,NA,0,NA,1,1600,1600,1600,17,target
9_9_casillas_tseltal_2015_42,26,9,casillas_tseltal_2015,42,xila,chair,target,67,37,0.6442307692307693,NA,1,NA,1,NA,1,2680,2680,2680,17,target
9_9_casillas_tseltal_2015_42,27,9,casillas_tseltal_2015,42,mes,broom,target,72,30,0.7058823529411765,NA,2,NA,0,NA,2,1440,560,2320,17,target
9_9_casillas_tseltal_2015_42,29,9,casillas_tseltal_2015,42,si',firewood,target,38,64,0.37254901960784315,NA,1,NA,0,NA,1,1520,1520,1520,17,target
9_9_casillas_tseltal_2015_42,30,9,casillas_tseltal_2015,42,bojch,bowl-tseltal,target,42,59,0.4158415841584158,NA,1,NA,0,NA,2,1480,200,1480,17,target
10_10_casillas_tseltal_2015_46,1,10,casillas_tseltal_2015,46,wa,tortilla,target,86,12,0.8775510204081632,NA,2,NA,0,NA,2,1720,1840,1840,21,target
10_10_casillas_tseltal_2015_46,2,10,casillas_tseltal_2015,46,moch,basket-tseltal,target,80,24,0.7692307692307693,NA,1,NA,1,NA,1,3200,3200,3200,21,target
10_10_casillas_tseltal_2015_46,3,10,casillas_tseltal_2015,46,pelota,ball,target,88,6,0.9361702127659575,NA,1,NA,1,NA,0,3520,3520,3520,21,target
10_10_casillas_tseltal_2015_46,6,10,casillas_tseltal_2015,46,nichim,flower,target,106,0,1,NA,1,NA,1,NA,0,4240,4240,4240,21,target
10_10_casillas_tseltal_2015_46,13,10,casillas_tseltal_2015,46,ixim,corn,target,80,19,0.8080808080808081,NA,2,NA,0,NA,2,1600,1600,1600,21,target
10_10_casillas_tseltal_2015_46,14,10,casillas_tseltal_2015,46,karo,car,target,106,0,1,NA,1,NA,1,NA,0,4240,4240,4240,21,target
10_10_casillas_tseltal_2015_46,17,10,casillas_tseltal_2015,46,waybal,bed,target,90,11,0.8910891089108911,NA,1,NA,0,NA,0,3280,320,3280,21,target
10_10_casillas_tseltal_2015_46,18,10,casillas_tseltal_2015,46,t'inel,doorway,target,106,0,1,NA,1,NA,1,NA,0,4240,4240,4240,21,target
10_10_casillas_tseltal_2015_46,19,10,casillas_tseltal_2015,46,lo'bal,banana,target,106,0,1,NA,1,NA,1,NA,0,4240,4240,4240,21,target
10_10_casillas_tseltal_2015_46,24,10,casillas_tseltal_2015,46,tzek',skirt-tseltal,target,52,50,0.5098039215686274,NA,2,NA,0,NA,2,1040,1480,1480,21,target
10_10_casillas_tseltal_2015_46,26,10,casillas_tseltal_2015,46,xila,chair,target,80,19,0.8080808080808081,NA,2,NA,0,NA,2,1600,2000,2000,21,target
10_10_casillas_tseltal_2015_46,28,10,casillas_tseltal_2015,46,machit,machete,target,106,0,1,NA,1,NA,1,NA,0,4240,4240,4240,21,target
10_10_casillas_tseltal_2015_46,29,10,casillas_tseltal_2015,46,si',firewood,target,106,0,1,NA,1,NA,1,NA,0,4240,4240,4240,21,target
12_12_casillas_tseltal_2015_16,1,12,casillas_tseltal_2015,16,lo'bal,banana,target,106,0,1,NA,1,NA,1,NA,0,4240,4240,4240,-9,target
12_12_casillas_tseltal_2015_16,8,12,casillas_tseltal_2015,16,xila,chair,target,106,0,1,NA,1,NA,1,NA,0,4240,4240,4240,-9,target
12_12_casillas_tseltal_2015_16,14,12,casillas_tseltal_2015,16,moch,basket-tseltal,target,30,72,0.29411764705882354,NA,1,NA,0,NA,1,1120,1120,1120,-9,target
12_12_casillas_tseltal_2015_16,16,12,casillas_tseltal_2015,16,chojak',purse-tseltal,target,35,69,0.33653846153846156,NA,1,NA,0,NA,1,1400,1400,1400,-9,target
12_12_casillas_tseltal_2015_16,17,12,casillas_tseltal_2015,16,baso,cup,target,106,0,1,NA,1,NA,1,NA,0,4240,4240,4240,-9,target
12_12_casillas_tseltal_2015_16,18,12,casillas_tseltal_2015,16,nichim,flower,target,19,85,0.18269230769230768,NA,1,NA,0,NA,1,760,760,760,-9,target
12_12_casillas_tseltal_2015_16,20,12,casillas_tseltal_2015,16,mut,chicken,target,77,15,0.8369565217391305,NA,2,NA,1,NA,1,1540,2560,2560,-9,target
12_12_casillas_tseltal_2015_16,21,12,casillas_tseltal_2015,16,k'ajk',fire,target,85,16,0.8415841584158416,NA,2,NA,1,NA,2,1700,2160,2160,-9,target
12_12_casillas_tseltal_2015_16,22,12,casillas_tseltal_2015,16,mexa,table,target,70,27,0.7216494845360825,NA,2,NA,0,NA,2,1400,560,2240,-9,target
12_12_casillas_tseltal_2015_16,24,12,casillas_tseltal_2015,16,ja',water,target,40,33,0.547945205479452,NA,1,NA,0,NA,1,1280,320,1280,-9,target
12_12_casillas_tseltal_2015_16,26,12,casillas_tseltal_2015,16,karo,car,target,46,48,0.48936170212765956,NA,1,NA,0,NA,1,1840,1840,1840,-9,target
12_12_casillas_tseltal_2015_16,30,12,casillas_tseltal_2015,16,waybal,bed,target,106,0,1,NA,1,NA,1,NA,0,4240,4240,4240,-9,target
12_12_casillas_tseltal_2015_16,31,12,casillas_tseltal_2015,16,t'inel,doorway,target,51,53,0.49038461538461536,NA,1,NA,0,NA,1,2040,2040,2040,-9,target
12_12_casillas_tseltal_2015_16,32,12,casillas_tseltal_2015,16,chenek',bean,target,106,0,1,NA,1,NA,1,NA,0,4240,4240,4240,-9,target
12_12_casillas_tseltal_2015_16,34,12,casillas_tseltal_2015,16,tomut,egg,target,82,23,0.780952380952381,NA,2,NA,0,NA,2,1640,520,2760,-9,target
12_12_casillas_tseltal_2015_16,36,12,casillas_tseltal_2015,16,tzek',skirt-tseltal,target,70,34,0.6730769230769231,NA,1,NA,1,NA,1,2800,2800,2800,-9,target
12_12_casillas_tseltal_2015_16,37,12,casillas_tseltal_2015,16,ich,chile,target,51,44,0.5368421052631579,NA,1,NA,1,NA,1,2040,2040,2040,-9,target
12_12_casillas_tseltal_2015_16,40,12,casillas_tseltal_2015,16,si',firewood,target,106,0,1,NA,1,NA,1,NA,0,4240,4240,4240,-9,target
13_13_casillas_tseltal_2015_48,1,13,casillas_tseltal_2015,48,xila,chair,target,106,0,1,NA,1,NA,1,NA,0,4240,4240,4240,23,target
13_13_casillas_tseltal_2015_48,6,13,casillas_tseltal_2015,48,wa,tortilla,target,55,44,0.5555555555555556,NA,3,NA,0,NA,4,733.3333333333334,1080,1080,23,target
13_13_casillas_tseltal_2015_48,7,13,casillas_tseltal_2015,48,moch,basket-tseltal,target,55,41,0.5729166666666666,NA,1,NA,0,NA,1,1880,320,1880,23,target
13_13_casillas_tseltal_2015_48,8,13,casillas_tseltal_2015,48,pelota,ball,target,8,94,0.0784313725490196,NA,NA,NA,0,NA,0,NA,320,NA,23,target
13_13_casillas_tseltal_2015_48,9,13,casillas_tseltal_2015,48,chojak',purse-tseltal,target,48,54,0.47058823529411764,NA,2,NA,0,NA,2,960,880,1040,23,target
13_13_casillas_tseltal_2015_48,11,13,casillas_tseltal_2015,48,nichim,flower,target,72,11,0.8674698795180723,NA,1,NA,0,NA,0,2880,2880,2880,23,target
13_13_casillas_tseltal_2015_48,12,13,casillas_tseltal_2015,48,balti,bucket,target,43,59,0.4215686274509804,NA,2,NA,0,NA,3,860,640,1080,23,target
13_13_casillas_tseltal_2015_48,31,13,casillas_tseltal_2015,48,mes,broom,target,106,0,1,NA,1,NA,1,NA,0,4240,4240,4240,23,target
13_13_casillas_tseltal_2015_48,33,13,casillas_tseltal_2015,48,si',firewood,target,29,77,0.27358490566037735,NA,1,NA,0,NA,1,720,440,720,23,target
14_14_casillas_tseltal_2015_29,8,14,casillas_tseltal_2015,29,xila,chair,target,78,15,0.8387096774193549,NA,1,NA,1,NA,1,3120,3120,3120,4,target
14_14_casillas_tseltal_2015_29,14,14,casillas_tseltal_2015,29,moch,basket-tseltal,target,106,0,1,NA,1,NA,1,NA,0,4240,4240,4240,4,target
14_14_casillas_tseltal_2015_29,15,14,casillas_tseltal_2015,29,pelota,ball,target,75,26,0.7425742574257426,NA,2,NA,0,NA,2,1500,760,2240,4,target
14_14_casillas_tseltal_2015_29,16,14,casillas_tseltal_2015,29,chojak',purse-tseltal,target,48,38,0.5581395348837209,NA,1,NA,0,NA,1,1920,1920,1920,4,target
14_14_casillas_tseltal_2015_29,18,14,casillas_tseltal_2015,29,nichim,flower,target,78,20,0.7959183673469388,NA,2,NA,0,NA,2,1560,1920,1920,4,target
14_14_casillas_tseltal_2015_29,19,14,casillas_tseltal_2015,29,balti,bucket,target,106,0,1,NA,1,NA,1,NA,0,4240,4240,4240,4,target
14_14_casillas_tseltal_2015_29,20,14,casillas_tseltal_2015,29,mut,chicken,target,43,57,0.43,NA,2,NA,0,NA,2,860,760,960,4,target
14_14_casillas_tseltal_2015_29,21,14,casillas_tseltal_2015,29,k'ajk',fire,target,44,58,0.43137254901960786,NA,2,NA,0,NA,2,880,840,920,4,target
14_14_casillas_tseltal_2015_29,22,14,casillas_tseltal_2015,29,mexa,table,target,29,76,0.2761904761904762,NA,1,NA,0,NA,1,1160,1160,1160,4,target
14_14_casillas_tseltal_2015_29,23,14,casillas_tseltal_2015,29,xawin,cat,target,31,72,0.30097087378640774,NA,1,NA,0,NA,1,1160,1160,1160,4,target
14_14_casillas_tseltal_2015_29,25,14,casillas_tseltal_2015,29,ixim,corn,target,63,40,0.6116504854368932,NA,2,NA,0,NA,2,1260,1280,1280,4,target
14_14_casillas_tseltal_2015_29,26,14,casillas_tseltal_2015,29,karo,car,target,70,34,0.6730769230769231,NA,1,NA,1,NA,1,2800,2800,2800,4,target
14_14_casillas_tseltal_2015_29,30,14,casillas_tseltal_2015,29,waybal,bed,target,106,0,1,NA,1,NA,1,NA,0,4240,4240,4240,4,target
14_14_casillas_tseltal_2015_29,31,14,casillas_tseltal_2015,29,t'inel,doorway,target,10,95,0.09523809523809523,NA,NA,NA,0,NA,0,NA,400,NA,4,target
14_14_casillas_tseltal_2015_29,34,14,casillas_tseltal_2015,29,tomut,egg,target,40,61,0.39603960396039606,NA,1,NA,0,NA,1,1600,1600,1600,4,target
14_14_casillas_tseltal_2015_29,39,14,casillas_tseltal_2015,29,machit,machete,target,47,56,0.4563106796116505,NA,1,NA,0,NA,1,1560,320,1560,4,target
14_14_casillas_tseltal_2015_29,40,14,casillas_tseltal_2015,29,si',firewood,target,83,21,0.7980769230769231,NA,1,NA,1,NA,1,3320,3320,3320,4,target
15_15_casillas_tseltal_2015_39,1,15,casillas_tseltal_2015,39,lo'bal,banana,target,58,43,0.5742574257425742,NA,3,NA,0,NA,2,773.3333333333334,1280,1280,14,target
15_15_casillas_tseltal_2015_39,8,15,casillas_tseltal_2015,39,xila,chair,target,14,90,0.1346153846153846,NA,1,NA,0,NA,1,560,560,560,14,target
15_15_casillas_tseltal_2015_39,14,15,casillas_tseltal_2015,39,moch,basket-tseltal,target,106,0,1,NA,1,NA,1,NA,0,4240,4240,4240,14,target
15_15_casillas_tseltal_2015_39,17,15,casillas_tseltal_2015,39,baso,cup,target,42,59,0.4158415841584158,NA,1,NA,0,NA,1,1400,1400,1400,14,target
15_15_casillas_tseltal_2015_39,18,15,casillas_tseltal_2015,39,nichim,flower,target,67,28,0.7052631578947368,NA,1,NA,1,NA,1,2680,2680,2680,14,target
15_15_casillas_tseltal_2015_39,23,15,casillas_tseltal_2015,39,xawin,cat,target,39,66,0.37142857142857144,NA,2,NA,0,NA,2,780,1080,1080,14,target
15_15_casillas_tseltal_2015_39,25,15,casillas_tseltal_2015,39,ixim,corn,target,35,62,0.36082474226804123,NA,2,NA,0,NA,2,700,640,760,14,target
15_15_casillas_tseltal_2015_39,26,15,casillas_tseltal_2015,39,karo,car,target,106,0,1,NA,1,NA,1,NA,0,4240,4240,4240,14,target
15_15_casillas_tseltal_2015_39,30,15,casillas_tseltal_2015,39,waybal,bed,target,69,29,0.7040816326530612,NA,2,NA,0,NA,2,1380,1720,1720,14,target
15_15_casillas_tseltal_2015_39,32,15,casillas_tseltal_2015,39,chenek',bean,target,6,98,0.057692307692307696,NA,NA,NA,0,NA,0,NA,240,NA,14,target
15_15_casillas_tseltal_2015_39,33,15,casillas_tseltal_2015,39,tz'i,dog,target,106,0,1,NA,1,NA,1,NA,0,4240,4240,4240,14,target
15_15_casillas_tseltal_2015_39,37,15,casillas_tseltal_2015,39,ich,chile,target,74,31,0.7047619047619048,NA,2,NA,0,NA,2,1480,2120,2120,14,target
15_15_casillas_tseltal_2015_39,40,15,casillas_tseltal_2015,39,si',firewood,target,61,32,0.6559139784946236,NA,2,NA,0,NA,2,1220,1600,1600,14,target
16_16_casillas_tseltal_2015_41,1,16,casillas_tseltal_2015,41,lo'bal,banana,target,106,0,1,NA,1,NA,1,NA,0,4240,4240,4240,16,target
16_16_casillas_tseltal_2015_41,8,16,casillas_tseltal_2015,41,xila,chair,target,54,48,0.5294117647058824,NA,1,NA,1,NA,1,2160,2160,2160,16,target
16_16_casillas_tseltal_2015_41,15,16,casillas_tseltal_2015,41,pelota,ball,target,21,84,0.2,NA,1,NA,0,NA,1,840,840,840,16,target
16_16_casillas_tseltal_2015_41,16,16,casillas_tseltal_2015,41,chojak',purse-tseltal,target,69,36,0.6571428571428571,NA,1,NA,1,NA,1,2760,2760,2760,16,target
16_16_casillas_tseltal_2015_41,17,16,casillas_tseltal_2015,41,baso,cup,target,71,29,0.71,NA,2,NA,0,NA,2,1420,1600,1600,16,target
16_16_casillas_tseltal_2015_41,18,16,casillas_tseltal_2015,41,nichim,flower,target,95,9,0.9134615384615384,NA,1,NA,0,NA,0,3480,320,3480,16,target
16_16_casillas_tseltal_2015_41,19,16,casillas_tseltal_2015,41,balti,bucket,target,106,0,1,NA,1,NA,1,NA,0,4240,4240,4240,16,target
16_16_casillas_tseltal_2015_41,21,16,casillas_tseltal_2015,41,k'ajk',fire,target,18,87,0.17142857142857143,NA,1,NA,0,NA,1,720,720,720,16,target
16_16_casillas_tseltal_2015_41,22,16,casillas_tseltal_2015,41,mexa,table,target,22,80,0.21568627450980393,NA,1,NA,0,NA,1,880,880,880,16,target
16_16_casillas_tseltal_2015_41,23,16,casillas_tseltal_2015,41,xawin,cat,target,106,0,1,NA,1,NA,1,NA,0,4240,4240,4240,16,target
16_16_casillas_tseltal_2015_41,25,16,casillas_tseltal_2015,41,ixim,corn,target,32,72,0.3076923076923077,NA,1,NA,0,NA,1,1280,1280,1280,16,target
16_16_casillas_tseltal_2015_41,26,16,casillas_tseltal_2015,41,karo,car,target,106,0,1,NA,1,NA,1,NA,0,4240,4240,4240,16,target
16_16_casillas_tseltal_2015_41,27,16,casillas_tseltal_2015,41,bojch,bowl-tseltal,target,29,42,0.4084507042253521,NA,1,NA,0,NA,1,1040,1040,1040,16,target
16_16_casillas_tseltal_2015_41,28,16,casillas_tseltal_2015,41,na,house,target,106,0,1,NA,1,NA,1,NA,0,4240,4240,4240,16,target
16_16_casillas_tseltal_2015_41,30,16,casillas_tseltal_2015,41,waybal,bed,target,106,0,1,NA,1,NA,1,NA,0,4240,4240,4240,16,target
16_16_casillas_tseltal_2015_41,32,16,casillas_tseltal_2015,41,chenek',bean,target,21,84,0.2,NA,1,NA,0,NA,1,840,840,840,16,target
16_16_casillas_tseltal_2015_41,33,16,casillas_tseltal_2015,41,tz'i,dog,target,71,30,0.7029702970297029,NA,2,NA,1,NA,2,1420,2360,2360,16,target
16_16_casillas_tseltal_2015_41,35,16,casillas_tseltal_2015,41,p'in,pot-tseltal,target,106,0,1,NA,1,NA,1,NA,0,4240,4240,4240,16,target
16_16_casillas_tseltal_2015_41,37,16,casillas_tseltal_2015,41,ich,chile,target,46,56,0.45098039215686275,NA,1,NA,0,NA,1,1760,1760,1760,16,target
16_16_casillas_tseltal_2015_41,38,16,casillas_tseltal_2015,41,mes,broom,target,79,23,0.7745098039215687,NA,1,NA,0,NA,1,3080,3080,3080,16,target
16_16_casillas_tseltal_2015_41,40,16,casillas_tseltal_2015,41,si',firewood,target,106,0,1,NA,1,NA,1,NA,0,4240,4240,4240,16,target
17_17_casillas_tseltal_2015_32,1,17,casillas_tseltal_2015,32,lo'bal,banana,target,72,34,0.6792452830188679,NA,1,NA,1,NA,1,2880,2880,2880,7,target
17_17_casillas_tseltal_2015_32,8,17,casillas_tseltal_2015,32,xila,chair,target,71,32,0.6893203883495146,NA,1,NA,0,NA,1,2400,440,2400,7,target
17_17_casillas_tseltal_2015_32,14,17,casillas_tseltal_2015,32,moch,basket-tseltal,target,106,0,1,NA,1,NA,1,NA,0,4240,4240,4240,7,target
17_17_casillas_tseltal_2015_32,18,17,casillas_tseltal_2015,32,nichim,flower,target,59,45,0.5673076923076923,NA,1,NA,1,NA,1,2360,2360,2360,7,target
17_17_casillas_tseltal_2015_32,19,17,casillas_tseltal_2015,32,balti,bucket,target,106,0,1,NA,1,NA,1,NA,0,4240,4240,4240,7,target
17_17_casillas_tseltal_2015_32,20,17,casillas_tseltal_2015,32,mut,chicken,target,67,39,0.6320754716981132,NA,1,NA,1,NA,1,2680,2680,2680,7,target
17_17_casillas_tseltal_2015_32,21,17,casillas_tseltal_2015,32,k'ajk',fire,target,106,0,1,NA,1,NA,1,NA,0,4240,4240,4240,7,target
17_17_casillas_tseltal_2015_32,23,17,casillas_tseltal_2015,32,xawin,cat,target,106,0,1,NA,1,NA,1,NA,0,4240,4240,4240,7,target
17_17_casillas_tseltal_2015_32,24,17,casillas_tseltal_2015,32,ja',water,target,53,50,0.5145631067961165,NA,1,NA,0,NA,1,2120,2120,2120,7,target
17_17_casillas_tseltal_2015_32,25,17,casillas_tseltal_2015,32,ixim,corn,target,46,56,0.45098039215686275,NA,1,NA,0,NA,1,1840,1840,1840,7,target
17_17_casillas_tseltal_2015_32,26,17,casillas_tseltal_2015,32,karo,car,target,70,34,0.6730769230769231,NA,2,NA,0,NA,2,1400,2160,2160,7,target
17_17_casillas_tseltal_2015_32,27,17,casillas_tseltal_2015,32,bojch,bowl-tseltal,target,46,56,0.45098039215686275,NA,1,NA,0,NA,2,1840,1840,1840,7,target
17_17_casillas_tseltal_2015_32,31,17,casillas_tseltal_2015,32,t'inel,doorway,target,101,0,1,NA,1,NA,1,NA,0,3760,3760,3760,7,target
17_17_casillas_tseltal_2015_32,34,17,casillas_tseltal_2015,32,tomut,egg,target,90,14,0.8653846153846154,NA,2,NA,0,NA,2,1800,1400,2200,7,target
17_17_casillas_tseltal_2015_32,35,17,casillas_tseltal_2015,32,p'in,pot-tseltal,target,87,0,1,NA,1,NA,1,NA,0,3400,3400,3400,7,target
17_17_casillas_tseltal_2015_32,36,17,casillas_tseltal_2015,32,tzek',skirt-tseltal,target,54,50,0.5192307692307693,NA,2,NA,0,NA,2,1080,1680,1680,7,target
17_17_casillas_tseltal_2015_32,37,17,casillas_tseltal_2015,32,ich,chile,target,37,65,0.3627450980392157,NA,1,NA,0,NA,1,1200,1200,1200,7,target
17_17_casillas_tseltal_2015_32,40,17,casillas_tseltal_2015,32,si',firewood,target,100,0,1,NA,2,NA,1,NA,0,2000,2560,2560,7,target
18_18_casillas_tseltal_2015_32,1,18,casillas_tseltal_2015,32,lo'bal,banana,target,59,36,0.6210526315789474,NA,1,NA,1,NA,1,2360,2360,2360,7,target
18_18_casillas_tseltal_2015_32,16,18,casillas_tseltal_2015,32,chojak',purse-tseltal,target,72,24,0.75,NA,2,NA,1,NA,2,1440,2360,2360,7,target
18_18_casillas_tseltal_2015_32,18,18,casillas_tseltal_2015,32,nichim,flower,target,106,0,1,NA,1,NA,1,NA,0,4240,4240,4240,7,target
18_18_casillas_tseltal_2015_32,19,18,casillas_tseltal_2015,32,balti,bucket,target,106,0,1,NA,1,NA,1,NA,0,4240,4240,4240,7,target
18_18_casillas_tseltal_2015_32,22,18,casillas_tseltal_2015,32,mexa,table,target,61,36,0.6288659793814433,NA,2,NA,0,NA,2,1220,1400,1400,7,target
18_18_casillas_tseltal_2015_32,24,18,casillas_tseltal_2015,32,ja',water,target,66,34,0.66,NA,2,NA,0,NA,2,1320,2040,2040,7,target
18_18_casillas_tseltal_2015_32,25,18,casillas_tseltal_2015,32,ixim,corn,target,67,35,0.6568627450980392,NA,2,NA,0,NA,2,1340,1080,1600,7,target
18_18_casillas_tseltal_2015_32,26,18,casillas_tseltal_2015,32,karo,car,target,74,27,0.7326732673267327,NA,1,NA,1,NA,1,2880,2880,2880,7,target
18_18_casillas_tseltal_2015_32,30,18,casillas_tseltal_2015,32,waybal,bed,target,2,103,0.01904761904761905,NA,NA,NA,0,NA,0,NA,NA,NA,7,target
18_18_casillas_tseltal_2015_32,31,18,casillas_tseltal_2015,32,t'inel,doorway,target,106,0,1,NA,1,NA,1,NA,0,4240,4240,4240,7,target
18_18_casillas_tseltal_2015_32,38,18,casillas_tseltal_2015,32,mes,broom,target,106,0,1,NA,1,NA,1,NA,0,4240,4240,4240,7,target
19_19_casillas_tseltal_2015_35,8,19,casillas_tseltal_2015,35,xila,chair,target,83,21,0.7980769230769231,NA,1,NA,1,NA,1,3320,3320,3320,10,target
19_19_casillas_tseltal_2015_35,17,19,casillas_tseltal_2015,35,baso,cup,target,12,90,0.11764705882352941,NA,NA,NA,0,NA,0,NA,200,NA,10,target
19_19_casillas_tseltal_2015_35,20,19,casillas_tseltal_2015,35,mut,chicken,target,54,48,0.5294117647058824,NA,1,NA,1,NA,1,2160,2160,2160,10,target
19_19_casillas_tseltal_2015_35,24,19,casillas_tseltal_2015,35,ja',water,target,106,0,1,NA,1,NA,1,NA,0,4240,4240,4240,10,target
19_19_casillas_tseltal_2015_35,25,19,casillas_tseltal_2015,35,ixim,corn,target,16,88,0.15384615384615385,NA,1,NA,0,NA,1,640,640,640,10,target
19_19_casillas_tseltal_2015_35,26,19,casillas_tseltal_2015,35,karo,car,target,85,20,0.8095238095238095,NA,1,NA,1,NA,1,3400,3400,3400,10,target
19_19_casillas_tseltal_2015_35,28,19,casillas_tseltal_2015,35,na,house,target,74,21,0.7789473684210526,NA,2,NA,1,NA,2,1480,2320,2320,10,target
19_19_casillas_tseltal_2015_35,30,19,casillas_tseltal_2015,35,waybal,bed,target,11,84,0.11578947368421053,NA,NA,NA,0,NA,0,NA,440,NA,10,target
19_19_casillas_tseltal_2015_35,31,19,casillas_tseltal_2015,35,t'inel,doorway,target,65,39,0.625,NA,2,NA,0,NA,3,1300,720,1880,10,target
19_19_casillas_tseltal_2015_35,32,19,casillas_tseltal_2015,35,chenek',bean,target,89,15,0.8557692307692307,NA,2,NA,0,NA,2,1780,1040,2520,10,target
19_19_casillas_tseltal_2015_35,36,19,casillas_tseltal_2015,35,tzek',skirt-tseltal,target,73,31,0.7019230769230769,NA,2,NA,0,NA,2,1460,1680,1680,10,target
19_19_casillas_tseltal_2015_35,37,19,casillas_tseltal_2015,35,ich,chile,target,72,0,1,NA,1,NA,1,NA,0,2880,2880,2880,10,target
19_19_casillas_tseltal_2015_35,39,19,casillas_tseltal_2015,35,machit,machete,target,22,82,0.21153846153846154,NA,1,NA,0,NA,1,880,880,880,10,target
19_19_casillas_tseltal_2015_35,40,19,casillas_tseltal_2015,35,si',firewood,target,106,0,1,NA,1,NA,1,NA,0,4240,4240,4240,10,target
20_20_casillas_tseltal_2015_36,1,20,casillas_tseltal_2015,36,lo'bal,banana,target,106,0,1,NA,1,NA,1,NA,0,4240,4240,4240,11,target
20_20_casillas_tseltal_2015_36,18,20,casillas_tseltal_2015,36,nichim,flower,target,82,23,0.780952380952381,NA,1,NA,1,NA,1,3280,3280,3280,11,target
20_20_casillas_tseltal_2015_36,19,20,casillas_tseltal_2015,36,balti,bucket,target,60,42,0.5882352941176471,NA,2,NA,0,NA,2,1200,1160,1240,11,target
20_20_casillas_tseltal_2015_36,20,20,casillas_tseltal_2015,36,mut,chicken,target,40,59,0.40404040404040403,NA,1,NA,0,NA,2,1600,1600,1600,11,target
20_20_casillas_tseltal_2015_36,21,20,casillas_tseltal_2015,36,k'ajk',fire,target,64,36,0.64,NA,1,NA,0,NA,1,2120,440,2120,11,target
20_20_casillas_tseltal_2015_36,22,20,casillas_tseltal_2015,36,mexa,table,target,80,22,0.7843137254901961,NA,2,NA,0,NA,2,1600,760,2440,11,target
20_20_casillas_tseltal_2015_36,24,20,casillas_tseltal_2015,36,ja',water,target,83,20,0.8058252427184466,NA,1,NA,1,NA,1,3320,3320,3320,11,target
20_20_casillas_tseltal_2015_36,25,20,casillas_tseltal_2015,36,ixim,corn,target,24,80,0.23076923076923078,NA,1,NA,0,NA,1,960,960,960,11,target
20_20_casillas_tseltal_2015_36,27,20,casillas_tseltal_2015,36,bojch,bowl-tseltal,target,17,81,0.17346938775510204,NA,1,NA,0,NA,2,560,560,560,11,target
20_20_casillas_tseltal_2015_36,28,20,casillas_tseltal_2015,36,na,house,target,69,29,0.7040816326530612,NA,1,NA,1,NA,1,2760,2760,2760,11,target
20_20_casillas_tseltal_2015_36,30,20,casillas_tseltal_2015,36,waybal,bed,target,102,0,1,NA,1,NA,1,NA,0,3920,3920,3920,11,target
20_20_casillas_tseltal_2015_36,34,20,casillas_tseltal_2015,36,tomut,egg,target,46,58,0.4423076923076923,NA,1,NA,0,NA,1,1600,240,1600,11,target
20_20_casillas_tseltal_2015_36,35,20,casillas_tseltal_2015,36,p'in,pot-tseltal,target,63,37,0.63,NA,1,NA,0,NA,2,2120,400,2120,11,target
20_20_casillas_tseltal_2015_36,38,20,casillas_tseltal_2015,36,mes,broom,target,56,48,0.5384615384615384,NA,1,NA,1,NA,1,2240,2240,2240,11,target
20_20_casillas_tseltal_2015_36,40,20,casillas_tseltal_2015,36,si',firewood,target,77,28,0.7333333333333333,NA,1,NA,1,NA,1,3080,3080,3080,11,target
21_21_casillas_tseltal_2015_26,1,21,casillas_tseltal_2015,26,lo'bal,banana,target,74,29,0.7184466019417476,NA,2,NA,1,NA,2,1480,2440,2440,1,target
21_21_casillas_tseltal_2015_26,13,21,casillas_tseltal_2015,26,wa,tortilla,target,66,36,0.6470588235294118,NA,1,NA,1,NA,1,2240,2240,2240,1,target
21_21_casillas_tseltal_2015_26,14,21,casillas_tseltal_2015,26,moch,basket-tseltal,target,104,0,1,NA,2,NA,1,NA,0,2080,2880,2880,1,target
21_21_casillas_tseltal_2015_26,15,21,casillas_tseltal_2015,26,pelota,ball,target,106,0,1,NA,1,NA,1,NA,0,4240,4240,4240,1,target
21_21_casillas_tseltal_2015_26,16,21,casillas_tseltal_2015,26,chojak',purse-tseltal,target,101,0,1,NA,2,NA,1,NA,0,2020,2880,2880,1,target
21_21_casillas_tseltal_2015_26,18,21,casillas_tseltal_2015,26,nichim,flower,target,106,0,1,NA,1,NA,1,NA,0,4240,4240,4240,1,target
21_21_casillas_tseltal_2015_26,19,21,casillas_tseltal_2015,26,balti,bucket,target,106,0,1,NA,1,NA,1,NA,0,4240,4240,4240,1,target
21_21_casillas_tseltal_2015_26,20,21,casillas_tseltal_2015,26,mut,chicken,target,74,29,0.7184466019417476,NA,2,NA,0,NA,2,1480,1040,1920,1,target
21_21_casillas_tseltal_2015_26,21,21,casillas_tseltal_2015,26,k'ajk',fire,target,27,77,0.25961538461538464,NA,1,NA,0,NA,1,1080,1080,1080,1,target
21_21_casillas_tseltal_2015_26,23,21,casillas_tseltal_2015,26,xawin,cat,target,106,0,1,NA,1,NA,1,NA,0,4240,4240,4240,1,target
21_21_casillas_tseltal_2015_26,24,21,casillas_tseltal_2015,26,ja',water,target,44,56,0.44,NA,1,NA,0,NA,1,1760,1760,1760,1,target
21_21_casillas_tseltal_2015_26,25,21,casillas_tseltal_2015,26,ixim,corn,target,104,0,1,NA,1,NA,1,NA,0,4160,4160,4160,1,target
21_21_casillas_tseltal_2015_26,27,21,casillas_tseltal_2015,26,bojch,bowl-tseltal,target,72,0,1,NA,2,NA,1,NA,0,1440,1280,1600,1,target
21_21_casillas_tseltal_2015_26,28,21,casillas_tseltal_2015,26,na,house,target,106,0,1,NA,1,NA,1,NA,0,4240,4240,4240,1,target
21_21_casillas_tseltal_2015_26,29,21,casillas_tseltal_2015,26,te,tree,target,106,0,1,NA,1,NA,1,NA,0,4240,4240,4240,1,target
21_21_casillas_tseltal_2015_26,30,21,casillas_tseltal_2015,26,waybal,bed,target,106,0,1,NA,1,NA,1,NA,0,4240,4240,4240,1,target
21_21_casillas_tseltal_2015_26,34,21,casillas_tseltal_2015,26,tomut,egg,target,102,0,1,NA,2,NA,1,NA,0,2040,2480,2480,1,target
21_21_casillas_tseltal_2015_26,38,21,casillas_tseltal_2015,26,mes,broom,target,106,0,1,NA,1,NA,1,NA,0,4240,4240,4240,1,target
22_22_casillas_tseltal_2015_36,1,22,casillas_tseltal_2015,36,lo'bal,banana,target,106,0,1,NA,1,NA,1,NA,0,4240,4240,4240,11,target
22_22_casillas_tseltal_2015_36,14,22,casillas_tseltal_2015,36,moch,basket-tseltal,target,106,0,1,NA,1,NA,1,NA,0,4240,4240,4240,11,target
22_22_casillas_tseltal_2015_36,16,22,casillas_tseltal_2015,36,chojak',purse-tseltal,target,98,0,1,NA,2,NA,1,NA,0,1960,2240,2240,11,target
22_22_casillas_tseltal_2015_36,17,22,casillas_tseltal_2015,36,baso,cup,target,106,0,1,NA,1,NA,1,NA,0,4240,4240,4240,11,target
22_22_casillas_tseltal_2015_36,18,22,casillas_tseltal_2015,36,nichim,flower,target,99,0,1,NA,2,NA,1,NA,0,1980,1720,2240,11,target
22_22_casillas_tseltal_2015_36,19,22,casillas_tseltal_2015,36,balti,bucket,target,71,20,0.7802197802197802,NA,2,NA,1,NA,2,1420,2360,2360,11,target
22_22_casillas_tseltal_2015_36,21,22,casillas_tseltal_2015,36,k'ajk',fire,target,13,92,0.12380952380952381,NA,1,NA,0,NA,1,520,520,520,11,target
22_22_casillas_tseltal_2015_36,22,22,casillas_tseltal_2015,36,mexa,table,target,19,85,0.18269230769230768,NA,1,NA,0,NA,1,760,760,760,11,target
22_22_casillas_tseltal_2015_36,23,22,casillas_tseltal_2015,36,xawin,cat,target,54,42,0.5625,NA,1,NA,0,NA,1,2160,2160,2160,11,target
22_22_casillas_tseltal_2015_36,24,22,casillas_tseltal_2015,36,ja',water,target,21,84,0.2,NA,1,NA,0,NA,1,840,840,840,11,target
22_22_casillas_tseltal_2015_36,25,22,casillas_tseltal_2015,36,ixim,corn,target,33,63,0.34375,NA,1,NA,0,NA,1,1040,1040,1040,11,target
22_22_casillas_tseltal_2015_36,26,22,casillas_tseltal_2015,36,karo,car,target,46,45,0.5054945054945055,NA,1,NA,0,NA,1,1520,1520,1520,11,target
22_22_casillas_tseltal_2015_36,27,22,casillas_tseltal_2015,36,bojch,bowl-tseltal,target,106,0,1,NA,1,NA,1,NA,0,4240,4240,4240,11,target
22_22_casillas_tseltal_2015_36,29,22,casillas_tseltal_2015,36,te,tree,target,106,0,1,NA,1,NA,1,NA,0,4240,4240,4240,11,target
22_22_casillas_tseltal_2015_36,34,22,casillas_tseltal_2015,36,tomut,egg,target,106,0,1,NA,1,NA,1,NA,0,4240,4240,4240,11,target
22_22_casillas_tseltal_2015_36,35,22,casillas_tseltal_2015,36,p'in,pot-tseltal,target,20,83,0.1941747572815534,NA,1,NA,0,NA,1,720,720,720,11,target
22_22_casillas_tseltal_2015_36,38,22,casillas_tseltal_2015,36,mes,broom,target,106,0,1,NA,1,NA,1,NA,0,4240,4240,4240,11,target
23_23_ronfard_2021_22,1,23,ronfard_2021,22,dog,dog,target,37,0,1,NA,1,NA,1,NA,0,1233.3333333333335,1233.3333333333335,1233.3333333333335,-3,target
23_23_ronfard_2021_22,10,23,ronfard_2021,22,baby,baby,target,22,30,0.4230769230769231,NA,1,NA,0,NA,1,633.3333333333334,633.3333333333334,633.3333333333334,-3,target
23_23_ronfard_2021_22,19,23,ronfard_2021,22,baby,baby,target,58,0,1,NA,1,NA,1,NA,0,1933.3333333333335,1933.3333333333335,1933.3333333333335,-3,target
23_23_ronfard_2021_22,23,23,ronfard_2021,22,ball,ball,target,40,14,0.7407407407407407,0.6896551724137931,1,NA,0,NA,1,1033.3333333333335,1033.3333333333335,1033.3333333333335,-3,target
23_23_ronfard_2021_22,39,23,ronfard_2021,22,dog,dog,target,58,0,1,NA,1,NA,1,NA,0,1933.3333333333335,1933.3333333333335,1933.3333333333335,-3,target
23_23_ronfard_2021_22,51,23,ronfard_2021,22,shoe,shoe,target,7,47,0.12962962962962962,NA,NA,NA,0,NA,0,NA,233.33333333333334,NA,-3,target
23_23_ronfard_2021_22,53,23,ronfard_2021,22,book,book,target,58,0,1,0.7586206896551724,1,NA,1,NA,0,1933.3333333333335,1933.3333333333335,1933.3333333333335,-3,target
23_23_ronfard_2021_22,55,23,ronfard_2021,22,baby,baby,target,28,26,0.5185185185185185,NA,1,NA,0,NA,1,900.0000000000001,900.0000000000001,900.0000000000001,-3,target
23_23_ronfard_2021_22,60,23,ronfard_2021,22,dog,dog,target,58,0,1,NA,1,NA,1,NA,0,1933.3333333333335,1933.3333333333335,1933.3333333333335,-3,target
23_23_ronfard_2021_22,63,23,ronfard_2021,22,shoe,shoe,target,58,0,1,NA,1,NA,1,NA,0,1933.3333333333335,1933.3333333333335,1933.3333333333335,-3,target
24_24_ronfard_2021_19,10,24,ronfard_2021,19,baby,baby,target,58,0,1,1,1,NA,1,NA,0,1933.3333333333335,1933.3333333333335,1933.3333333333335,-6,target
24_24_ronfard_2021_19,16,24,ronfard_2021,19,ball,ball,target,58,0,1,NA,1,NA,1,NA,0,1933.3333333333335,1933.3333333333335,1933.3333333333335,-6,target
24_24_ronfard_2021_19,17,24,ronfard_2021,19,car,car,target,58,0,1,0.12068965517241381,1,NA,1,NA,0,1933.3333333333335,1933.3333333333335,1933.3333333333335,-6,target
24_24_ronfard_2021_19,19,24,ronfard_2021,19,baby,baby,target,58,0,1,1,1,NA,1,NA,0,1933.3333333333335,1933.3333333333335,1933.3333333333335,-6,target
24_24_ronfard_2021_19,26,24,ronfard_2021,19,car,car,target,58,0,1,0.12068965517241381,1,NA,1,NA,0,1933.3333333333335,1933.3333333333335,1933.3333333333335,-6,target
24_24_ronfard_2021_19,37,24,ronfard_2021,19,birdie,birdie,target,58,0,1,1,1,NA,1,NA,0,1933.3333333333335,1933.3333333333335,1933.3333333333335,-6,target
24_24_ronfard_2021_19,43,24,ronfard_2021,19,cat,cat,target,58,0,1,NA,1,NA,1,NA,0,1933.3333333333335,1933.3333333333335,1933.3333333333335,-6,target
24_24_ronfard_2021_19,45,24,ronfard_2021,19,birdie,birdie,target,58,0,1,1,1,NA,1,NA,0,1933.3333333333335,1933.3333333333335,1933.3333333333335,-6,target
24_24_ronfard_2021_19,48,24,ronfard_2021,19,car,car,target,58,0,1,0.12068965517241381,1,NA,1,NA,0,1933.3333333333335,1933.3333333333335,1933.3333333333335,-6,target
24_24_ronfard_2021_19,63,24,ronfard_2021,19,shoe,shoe,target,3,51,0.05555555555555555,0.05172413793103448,NA,NA,0,NA,0,NA,NA,NA,-6,target
25_25_ronfard_2021_20,1,25,ronfard_2021,20,baby,baby,target,7,47,0.12962962962962962,-0.3448275862068965,NA,NA,0,NA,0,NA,233.33333333333334,NA,-5,target
25_25_ronfard_2021_20,3,25,ronfard_2021,20,dog,dog,target,58,0,1,0.2068965517241379,1,NA,1,NA,0,1933.3333333333335,1933.3333333333335,1933.3333333333335,-5,target
25_25_ronfard_2021_20,6,25,ronfard_2021,20,shoe,shoe,target,43,11,0.7962962962962963,0.12068965517241381,1,NA,0,NA,1,1433.3333333333335,1433.3333333333335,1433.3333333333335,-5,target
25_25_ronfard_2021_20,13,25,ronfard_2021,20,book,book,target,4,51,0.07272727272727272,-0.4482758620689655,NA,NA,0,NA,0,NA,NA,NA,-5,target
25_25_ronfard_2021_20,19,25,ronfard_2021,20,cat,cat,target,0,46,0,0,NA,NA,0,NA,0,NA,NA,NA,-5,target
25_25_ronfard_2021_20,25,25,ronfard_2021,20,car,car,target,14,38,0.2692307692307692,0.08620689655172414,NA,NA,0,NA,0,NA,233.33333333333334,NA,-5,target
25_25_ronfard_2021_20,29,25,ronfard_2021,20,ball,ball,target,7,45,0.1346153846153846,-0.41379310344827586,NA,NA,0,NA,0,NA,233.33333333333334,NA,-5,target
25_25_ronfard_2021_20,43,25,ronfard_2021,20,car,car,target,3,53,0.05357142857142857,0.08620689655172414,NA,NA,0,NA,0,NA,NA,NA,-5,target
25_25_ronfard_2021_20,47,25,ronfard_2021,20,book,book,target,20,28,0.4166666666666667,-0.4482758620689655,1,NA,0,NA,1,666.6666666666667,666.6666666666667,666.6666666666667,-5,target
25_25_ronfard_2021_20,57,25,ronfard_2021,20,birdie,birdie,target,24,27,0.47058823529411764,-0.396551724137931,1,NA,0,NA,1,800,800,800,-5,target
25_25_ronfard_2021_20,58,25,ronfard_2021,20,ball,ball,target,24,31,0.43636363636363634,-0.41379310344827586,1,NA,0,NA,1,800,800,800,-5,target
25_25_ronfard_2021_20,62,25,ronfard_2021,20,car,car,target,31,17,0.6458333333333334,0.08620689655172414,1,NA,0,NA,1,700,700,700,-5,target
27_27_ronfard_2021_19,1,27,ronfard_2021,19,dog,dog,target,58,0,1,0.7068965517241379,1,NA,1,NA,0,1933.3333333333335,1933.3333333333335,1933.3333333333335,-6,target
27_27_ronfard_2021_19,4,27,ronfard_2021,19,shoe,shoe,target,31,23,0.5740740740740741,NA,1,NA,0,NA,1,1033.3333333333335,1033.3333333333335,1033.3333333333335,-6,target
27_27_ronfard_2021_19,8,27,ronfard_2021,19,shoe,shoe,target,58,0,1,NA,1,NA,1,NA,0,1933.3333333333335,1933.3333333333335,1933.3333333333335,-6,target
27_27_ronfard_2021_19,13,27,ronfard_2021,19,baby,baby,target,8,46,0.14814814814814814,NA,NA,NA,0,NA,0,NA,266.6666666666667,NA,-6,target
27_27_ronfard_2021_19,24,27,ronfard_2021,19,cat,cat,target,21,34,0.38181818181818183,0.6810344827586207,1,NA,0,NA,1,700,700,700,-6,target
27_27_ronfard_2021_19,34,27,ronfard_2021,19,shoe,shoe,target,12,42,0.2222222222222222,NA,1,NA,0,NA,1,400,400,400,-6,target
27_27_ronfard_2021_19,49,27,ronfard_2021,19,cat,cat,target,58,0,1,0.6810344827586207,1,NA,1,NA,0,1933.3333333333335,1933.3333333333335,1933.3333333333335,-6,target
28_28_ronfard_2021_18,3,28,ronfard_2021,18,car,car,target,19,34,0.3584905660377358,NA,1,NA,0,NA,1,633.3333333333334,633.3333333333334,633.3333333333334,-7,target
28_28_ronfard_2021_18,4,28,ronfard_2021,18,book,book,target,51,5,0.9107142857142857,0.9396551724137931,1,NA,0,NA,0,1700.0000000000002,1700.0000000000002,1700.0000000000002,-7,target
28_28_ronfard_2021_18,10,28,ronfard_2021,18,baby,baby,target,30,0,1,NA,2,NA,1,NA,0,500.00000000000006,566.6666666666667,566.6666666666667,-7,target
28_28_ronfard_2021_18,19,28,ronfard_2021,18,baby,baby,target,58,0,1,NA,1,NA,1,NA,0,1933.3333333333335,1933.3333333333335,1933.3333333333335,-7,target
28_28_ronfard_2021_18,22,28,ronfard_2021,18,book,book,target,58,0,1,0.9396551724137931,1,NA,1,NA,0,1933.3333333333335,1933.3333333333335,1933.3333333333335,-7,target
28_28_ronfard_2021_18,23,28,ronfard_2021,18,ball,ball,target,58,0,1,0.9568965517241379,1,NA,1,NA,0,1933.3333333333335,1933.3333333333335,1933.3333333333335,-7,target
28_28_ronfard_2021_18,43,28,ronfard_2021,18,cat,cat,target,52,2,0.9629629629629629,NA,1,NA,0,NA,0,1733.3333333333335,1733.3333333333335,1733.3333333333335,-7,target
28_28_ronfard_2021_18,54,28,ronfard_2021,18,cat,cat,target,40,15,0.7272727272727273,NA,1,NA,0,NA,1,1333.3333333333335,1333.3333333333335,1333.3333333333335,-7,target
29_29_ronfard_2021_22,5,29,ronfard_2021,22,shoe,shoe,target,31,21,0.5961538461538461,0.03448275862068961,1,NA,0,NA,1,700,700,700,-3,target
29_29_ronfard_2021_22,10,29,ronfard_2021,22,baby,baby,target,35,13,0.7291666666666666,0.15517241379310343,2,NA,0,NA,2,583.3333333333334,533.3333333333334,633.3333333333334,-3,target
29_29_ronfard_2021_22,17,29,ronfard_2021,22,birdie,birdie,target,26,26,0.5,0.22413793103448276,1,NA,0,NA,1,700,700,700,-3,target
29_29_ronfard_2021_22,24,29,ronfard_2021,22,ball,ball,target,16,39,0.2909090909090909,NA,1,NA,0,NA,1,533.3333333333334,533.3333333333334,533.3333333333334,-3,target
29_29_ronfard_2021_22,38,29,ronfard_2021,22,car,car,target,22,29,0.43137254901960786,0.017241379310344807,1,NA,0,NA,1,533.3333333333334,533.3333333333334,533.3333333333334,-3,target
29_29_ronfard_2021_22,55,29,ronfard_2021,22,dog,dog,target,21,34,0.38181818181818183,NA,1,NA,0,NA,1,700,700,700,-3,target
30_30_ronfard_2021_23,1,30,ronfard_2021,23,baby,baby,target,43,0,1,NA,1,NA,1,NA,0,1133.3333333333335,300,1133.3333333333335,-2,target
30_30_ronfard_2021_23,7,30,ronfard_2021,23,book,book,target,40,12,0.7692307692307693,NA,1,NA,0,NA,1,1033.3333333333335,300,1033.3333333333335,-2,target
30_30_ronfard_2021_23,10,30,ronfard_2021,23,shoe,shoe,target,37,14,0.7254901960784313,0.34482758620689663,1,NA,0,NA,1,1133.3333333333335,1133.3333333333335,1133.3333333333335,-2,target
30_30_ronfard_2021_23,12,30,ronfard_2021,23,baby,baby,target,58,0,1,NA,1,NA,1,NA,0,1933.3333333333335,1933.3333333333335,1933.3333333333335,-2,target
30_30_ronfard_2021_23,14,30,ronfard_2021,23,cat,cat,target,35,21,0.625,NA,1,NA,0,NA,1,1166.6666666666667,1166.6666666666667,1166.6666666666667,-2,target
30_30_ronfard_2021_23,15,30,ronfard_2021,23,baby,baby,target,48,0,1,NA,1,NA,1,NA,0,1500,1500,1500,-2,target
30_30_ronfard_2021_23,19,30,ronfard_2021,23,cat,cat,target,58,0,1,NA,1,NA,1,NA,0,1933.3333333333335,1933.3333333333335,1933.3333333333335,-2,target
30_30_ronfard_2021_23,26,30,ronfard_2021,23,cat,cat,target,44,7,0.8627450980392157,NA,1,NA,0,NA,0,1466.6666666666667,1466.6666666666667,1466.6666666666667,-2,target
30_30_ronfard_2021_23,35,30,ronfard_2021,23,car,car,target,35,17,0.6730769230769231,0.3620689655172413,1,NA,0,NA,1,866.6666666666667,300,866.6666666666667,-2,target
30_30_ronfard_2021_23,45,30,ronfard_2021,23,baby,baby,target,33,20,0.6226415094339622,NA,1,NA,0,NA,1,966.6666666666667,966.6666666666667,966.6666666666667,-2,target
30_30_ronfard_2021_23,53,30,ronfard_2021,23,baby,baby,target,39,16,0.7090909090909091,NA,1,NA,0,NA,1,1300,1300,1300,-2,target
31_31_ronfard_2021_19,1,31,ronfard_2021,19,baby,baby,target,29,25,0.5370370370370371,0.20689655172413796,1,NA,0,NA,1,966.6666666666667,966.6666666666667,966.6666666666667,-6,target
31_31_ronfard_2021_19,3,31,ronfard_2021,19,dog,dog,target,47,9,0.8392857142857143,0.5862068965517241,1,NA,0,NA,0,1566.6666666666667,1566.6666666666667,1566.6666666666667,-6,target
31_31_ronfard_2021_19,7,31,ronfard_2021,19,book,book,target,58,0,1,NA,1,NA,1,NA,0,1933.3333333333335,1933.3333333333335,1933.3333333333335,-6,target
31_31_ronfard_2021_19,10,31,ronfard_2021,19,shoe,shoe,target,48,6,0.8888888888888888,NA,1,NA,0,NA,0,1600,1600,1600,-6,target
31_31_ronfard_2021_19,13,31,ronfard_2021,19,book,book,target,31,25,0.5535714285714286,NA,1,NA,0,NA,1,1033.3333333333335,1033.3333333333335,1033.3333333333335,-6,target
31_31_ronfard_2021_19,14,31,ronfard_2021,19,cat,cat,target,29,26,0.5272727272727272,0.5948275862068966,1,NA,0,NA,1,966.6666666666667,966.6666666666667,966.6666666666667,-6,target
31_31_ronfard_2021_19,19,31,ronfard_2021,19,cat,cat,target,58,0,1,0.5948275862068966,1,NA,1,NA,0,1933.3333333333335,1933.3333333333335,1933.3333333333335,-6,target
31_31_ronfard_2021_19,30,31,ronfard_2021,19,birdie,birdie,target,37,17,0.6851851851851852,0.206896551724138,1,NA,0,NA,1,1233.3333333333335,1233.3333333333335,1233.3333333333335,-6,target
31_31_ronfard_2021_19,36,31,ronfard_2021,19,shoe,shoe,target,58,0,1,NA,1,NA,1,NA,0,1933.3333333333335,1933.3333333333335,1933.3333333333335,-6,target
32_32_ronfard_2021_20,3,32,ronfard_2021,20,car,car,target,58,0,1,NA,1,NA,1,NA,0,1933.3333333333335,1933.3333333333335,1933.3333333333335,-5,target
32_32_ronfard_2021_20,8,32,ronfard_2021,20,cat,cat,target,52,3,0.9454545454545454,NA,1,NA,0,NA,0,1733.3333333333335,1733.3333333333335,1733.3333333333335,-5,target
32_32_ronfard_2021_20,10,32,ronfard_2021,20,baby,baby,target,48,0,1,NA,1,NA,1,NA,0,1500,1500,1500,-5,target
32_32_ronfard_2021_20,16,32,ronfard_2021,20,ball,ball,target,58,0,1,NA,1,NA,1,NA,0,1933.3333333333335,1933.3333333333335,1933.3333333333335,-5,target
32_32_ronfard_2021_20,17,32,ronfard_2021,20,car,car,target,23,33,0.4107142857142857,NA,1,NA,0,NA,1,766.6666666666667,766.6666666666667,766.6666666666667,-5,target
32_32_ronfard_2021_20,26,32,ronfard_2021,20,car,car,target,58,0,1,NA,1,NA,1,NA,0,1933.3333333333335,1933.3333333333335,1933.3333333333335,-5,target
34_34_ronfard_2021_20,1,34,ronfard_2021,20,dog,dog,target,58,0,1,NA,1,NA,1,NA,0,1933.3333333333335,1933.3333333333335,1933.3333333333335,-5,target
34_34_ronfard_2021_20,4,34,ronfard_2021,20,book,book,target,58,0,1,0.3448275862068965,1,NA,1,NA,0,1933.3333333333335,1933.3333333333335,1933.3333333333335,-5,target
34_34_ronfard_2021_20,7,34,ronfard_2021,20,shoe,shoe,target,38,15,0.71698113207547165,0.22413793103448276,1,NA,0,NA,1,1166.6666666666667,1166.6666666666667,1166.6666666666667,-5,target
34_34_ronfard_2021_20,10,34,ronfard_2021,20,baby,baby,target,49,7,0.875,0.7586206896551724,1,NA,0,NA,0,1633.3333333333335,1633.3333333333335,1633.3333333333335,-5,target
34_34_ronfard_2021_20,16,34,ronfard_2021,20,ball,ball,target,22,30,0.4230769230769231,0.3405172413793103,1,NA,0,NA,1,500.00000000000006,500.00000000000006,500.00000000000006,-5,target
34_34_ronfard_2021_20,19,34,ronfard_2021,20,baby,baby,target,39,17,0.6964285714285714,0.7586206896551724,1,NA,0,NA,1,1300,1300,1300,-5,target
34_34_ronfard_2021_20,23,34,ronfard_2021,20,ball,ball,target,58,0,1,0.3405172413793103,1,NA,1,NA,0,1933.3333333333335,1933.3333333333335,1933.3333333333335,-5,target
34_34_ronfard_2021_20,26,34,ronfard_2021,20,car,car,target,24,27,0.47058823529411764,0.22413793103448276,1,NA,0,NA,1,633.3333333333334,633.3333333333334,633.3333333333334,-5,target
34_34_ronfard_2021_20,27,34,ronfard_2021,20,shoe,shoe,target,34,16,0.68,0.22413793103448276,2,NA,0,NA,2,566.6666666666667,533.3333333333334,600,-5,target
34_34_ronfard_2021_20,32,34,ronfard_2021,20,ball,ball,target,58,0,1,0.3405172413793103,1,NA,1,NA,0,1933.3333333333335,1933.3333333333335,1933.3333333333335,-5,target
34_34_ronfard_2021_20,36,34,ronfard_2021,20,ball,ball,target,21,32,0.39622641509433965,0.3405172413793103,1,NA,0,NA,1,566.6666666666667,566.6666666666667,566.6666666666667,-5,target
34_34_ronfard_2021_20,37,34,ronfard_2021,20,birdie,birdie,target,58,0,1,0.7931034482758621,1,NA,1,NA,0,1933.3333333333335,1933.3333333333335,1933.3333333333335,-5,target
34_34_ronfard_2021_20,39,34,ronfard_2021,20,dog,dog,target,1,51,0.019230769230769232,NA,NA,NA,0,NA,0,NA,NA,NA,-5,target
34_34_ronfard_2021_20,48,34,ronfard_2021,20,car,car,target,33,19,0.6346153846153846,0.22413793103448276,2,NA,0,NA,2,550,400,700,-5,target
34_34_ronfard_2021_20,53,34,ronfard_2021,20,book,book,target,13,40,0.24528301886792453,0.3448275862068965,1,NA,0,NA,1,433.33333333333337,433.33333333333337,433.33333333333337,-5,target
34_34_ronfard_2021_20,60,34,ronfard_2021,20,dog,dog,target,53,0,1,NA,1,NA,1,NA,0,1766.6666666666667,1766.6666666666667,1766.6666666666667,-5,target
35_35_ronfard_2021_18,4,35,ronfard_2021,18,book,book,target,57,0,1,NA,1,NA,1,NA,0,1900.0000000000002,1900.0000000000002,1900.0000000000002,-7,target
35_35_ronfard_2021_18,10,35,ronfard_2021,18,baby,baby,target,20,31,0.39215686274509803,-0.31034482758620685,1,NA,0,NA,1,500.00000000000006,500.00000000000006,500.00000000000006,-7,target
35_35_ronfard_2021_18,15,35,ronfard_2021,18,birdie,birdie,target,4,50,0.07407407407407407,-0.24999999999999994,NA,NA,0,NA,0,NA,NA,NA,-7,target
35_35_ronfard_2021_18,26,35,ronfard_2021,18,car,car,target,39,17,0.6964285714285714,NA,1,NA,0,NA,1,1300,1300,1300,-7,target
35_35_ronfard_2021_18,30,35,ronfard_2021,18,dog,dog,target,14,38,0.2692307692307692,0.19827586206896552,NA,NA,0,NA,0,NA,366.6666666666667,NA,-7,target
35_35_ronfard_2021_18,43,35,ronfard_2021,18,cat,cat,target,53,0,1,0.22413793103448276,2,NA,1,NA,0,883.3333333333335,900.0000000000001,900.0000000000001,-7,target
35_35_ronfard_2021_18,45,35,ronfard_2021,18,birdie,birdie,target,29,26,0.5272727272727272,-0.24999999999999994,1,NA,0,NA,1,966.6666666666667,966.6666666666667,966.6666666666667,-7,target
35_35_ronfard_2021_18,49,35,ronfard_2021,18,cat,cat,target,49,5,0.9074074074074074,0.22413793103448276,1,NA,0,NA,0,1633.3333333333335,1633.3333333333335,1633.3333333333335,-7,target
36_36_ronfard_2021_18,1,36,ronfard_2021,18,baby,baby,target,58,0,1,NA,1,NA,1,NA,0,1933.3333333333335,1933.3333333333335,1933.3333333333335,-7,target
36_36_ronfard_2021_18,3,36,ronfard_2021,18,dog,dog,target,20,27,0.425531914893617,NA,1,NA,0,NA,1,500.00000000000006,500.00000000000006,500.00000000000006,-7,target
36_36_ronfard_2021_18,10,36,ronfard_2021,18,shoe,shoe,target,58,0,1,NA,1,NA,1,NA,0,1933.3333333333335,1933.3333333333335,1933.3333333333335,-7,target
36_36_ronfard_2021_18,13,36,ronfard_2021,18,book,book,target,58,0,1,0.853448275862069,1,NA,1,NA,0,1933.3333333333335,1933.3333333333335,1933.3333333333335,-7,target
36_36_ronfard_2021_18,15,36,ronfard_2021,18,baby,baby,target,58,0,1,NA,1,NA,1,NA,0,1933.3333333333335,1933.3333333333335,1933.3333333333335,-7,target
36_36_ronfard_2021_18,29,36,ronfard_2021,18,ball,ball,target,35,17,0.6730769230769231,0.8017241379310345,1,NA,0,NA,1,1166.6666666666667,1166.6666666666667,1166.6666666666667,-7,target
36_36_ronfard_2021_18,41,36,ronfard_2021,18,ball,ball,target,58,0,1,0.8017241379310345,1,NA,1,NA,0,1933.3333333333335,1933.3333333333335,1933.3333333333335,-7,target
37_37_ronfard_2021_21,1,37,ronfard_2021,21,dog,dog,target,17,38,0.3090909090909091,0.29310344827586204,1,NA,0,NA,1,566.6666666666667,566.6666666666667,566.6666666666667,-4,target
37_37_ronfard_2021_21,10,37,ronfard_2021,21,baby,baby,target,58,0,1,1,1,NA,1,NA,0,1933.3333333333335,1933.3333333333335,1933.3333333333335,-4,target
37_37_ronfard_2021_21,15,37,ronfard_2021,21,birdie,birdie,target,58,0,1,1,1,NA,1,NA,0,1933.3333333333335,1933.3333333333335,1933.3333333333335,-4,target
37_37_ronfard_2021_21,16,37,ronfard_2021,21,ball,ball,target,42,0,1,NA,2,NA,1,NA,0,700,533.3333333333334,866.6666666666667,-4,target
37_37_ronfard_2021_21,27,37,ronfard_2021,21,shoe,shoe,target,58,0,1,NA,1,NA,1,NA,0,1933.3333333333335,1933.3333333333335,1933.3333333333335,-4,target
37_37_ronfard_2021_21,37,37,ronfard_2021,21,birdie,birdie,target,58,0,1,1,1,NA,1,NA,0,1933.3333333333335,1933.3333333333335,1933.3333333333335,-4,target
37_37_ronfard_2021_21,41,37,ronfard_2021,21,birdie,birdie,target,58,0,1,1,1,NA,1,NA,0,1933.3333333333335,1933.3333333333335,1933.3333333333335,-4,target
37_37_ronfard_2021_21,49,37,ronfard_2021,21,cat,cat,target,58,0,1,0.3448275862068966,1,NA,1,NA,0,1933.3333333333335,1933.3333333333335,1933.3333333333335,-4,target
37_37_ronfard_2021_21,54,37,ronfard_2021,21,cat,cat,target,58,0,1,0.3448275862068966,1,NA,1,NA,0,1933.3333333333335,1933.3333333333335,1933.3333333333335,-4,target
38_38_ronfard_2021_18,3,38,ronfard_2021,18,dog,dog,target,5,50,0.09090909090909091,-0.353448275862069,NA,NA,0,NA,0,NA,NA,NA,-7,target
38_38_ronfard_2021_18,7,38,ronfard_2021,18,book,book,target,34,17,0.6666666666666666,NA,1,NA,0,NA,1,900.0000000000001,233.33333333333334,900.0000000000001,-7,target
38_38_ronfard_2021_18,12,38,ronfard_2021,18,baby,baby,target,58,0,1,NA,1,NA,1,NA,0,1933.3333333333335,1933.3333333333335,1933.3333333333335,-7,target
38_38_ronfard_2021_18,15,38,ronfard_2021,18,baby,baby,target,54,0,1,NA,1,NA,1,NA,0,1766.6666666666667,1766.6666666666667,1766.6666666666667,-7,target
38_38_ronfard_2021_18,26,38,ronfard_2021,18,cat,cat,target,21,33,0.3888888888888889,-0.37068965517241376,1,NA,0,NA,1,700,700,700,-7,target
38_38_ronfard_2021_18,32,38,ronfard_2021,18,dog,dog,target,20,35,0.36363636363636365,-0.353448275862069,1,NA,0,NA,1,666.6666666666667,666.6666666666667,666.6666666666667,-7,target
38_38_ronfard_2021_18,45,38,ronfard_2021,18,baby,baby,target,35,19,0.6481481481481481,NA,1,NA,0,NA,1,1166.6666666666667,1166.6666666666667,1166.6666666666667,-7,target
38_38_ronfard_2021_18,63,38,ronfard_2021,18,book,book,target,40,17,0.7017543859649122,NA,1,NA,0,NA,0,900.0000000000001,900.0000000000001,900.0000000000001,-7,target
39_39_ronfard_2021_23,1,39,ronfard_2021,23,baby,baby,target,52,3,0.9454545454545454,NA,1,NA,0,NA,0,1733.3333333333335,1733.3333333333335,1733.3333333333335,-2,target
39_39_ronfard_2021_23,3,39,ronfard_2021,23,dog,dog,target,58,0,1,NA,1,NA,1,NA,0,1933.3333333333335,1933.3333333333335,1933.3333333333335,-2,target
39_39_ronfard_2021_23,6,39,ronfard_2021,23,shoe,shoe,target,37,16,0.6981132075471698,NA,1,NA,0,NA,1,966.6666666666667,266.6666666666667,966.6666666666667,-2,target
39_39_ronfard_2021_23,7,39,ronfard_2021,23,book,book,target,31,10,0.7560975609756098,0.6666666666666667,1,NA,0,NA,1,733.3333333333334,300,733.3333333333334,-2,target
39_39_ronfard_2021_23,15,39,ronfard_2021,23,baby,baby,target,58,0,1,NA,1,NA,1,NA,0,1933.3333333333335,1933.3333333333335,1933.3333333333335,-2,target
39_39_ronfard_2021_23,29,39,ronfard_2021,23,ball,ball,target,58,0,1,0.6149425287356322,1,NA,1,NA,0,1933.3333333333335,1933.3333333333335,1933.3333333333335,-2,target
39_39_ronfard_2021_23,41,39,ronfard_2021,23,ball,ball,target,58,0,1,0.6149425287356322,1,NA,1,NA,0,1933.3333333333335,1933.3333333333335,1933.3333333333335,-2,target
39_39_ronfard_2021_23,47,39,ronfard_2021,23,book,book,target,58,0,1,0.6666666666666667,1,NA,1,NA,0,1933.3333333333335,1933.3333333333335,1933.3333333333335,-2,target
39_39_ronfard_2021_23,53,39,ronfard_2021,23,baby,baby,target,58,0,1,NA,1,NA,1,NA,0,1933.3333333333335,1933.3333333333335,1933.3333333333335,-2,target
39_39_ronfard_2021_23,58,39,ronfard_2021,23,ball,ball,target,1,31,0.03125,0.6149425287356322,NA,NA,0,NA,0,NA,NA,NA,-2,target
39_39_ronfard_2021_23,63,39,ronfard_2021,23,book,book,target,58,0,1,0.6666666666666667,1,NA,1,NA,0,1933.3333333333335,1933.3333333333335,1933.3333333333335,-2,target
39_39_ronfard_2021_23,67,39,ronfard_2021,23,shoe,shoe,target,58,0,1,NA,1,NA,1,NA,0,1933.3333333333335,1933.3333333333335,1933.3333333333335,-2,target
40_40_ronfard_2021_22,1,40,ronfard_2021,22,dog,dog,target,16,34,0.32,0.27586206896551724,1,NA,0,NA,1,533.3333333333334,533.3333333333334,533.3333333333334,-3,target
40_40_ronfard_2021_22,15,40,ronfard_2021,22,birdie,birdie,target,23,27,0.46,-0.14655172413793105,1,NA,0,NA,1,766.6666666666667,766.6666666666667,766.6666666666667,-3,target
40_40_ronfard_2021_22,16,40,ronfard_2021,22,ball,ball,target,27,27,0.5,NA,1,NA,0,NA,1,900.0000000000001,900.0000000000001,900.0000000000001,-3,target
40_40_ronfard_2021_22,19,40,ronfard_2021,22,baby,baby,target,17,38,0.3090909090909091,-0.060344827586206906,1,NA,0,NA,1,566.6666666666667,566.6666666666667,566.6666666666667,-3,target
40_40_ronfard_2021_22,26,40,ronfard_2021,22,car,car,target,44,6,0.88,-0.24137931034482762,1,NA,0,NA,0,1466.6666666666667,1466.6666666666667,1466.6666666666667,-3,target
40_40_ronfard_2021_22,32,40,ronfard_2021,22,ball,ball,target,58,0,1,NA,1,NA,1,NA,0,1933.3333333333335,1933.3333333333335,1933.3333333333335,-3,target
40_40_ronfard_2021_22,41,40,ronfard_2021,22,birdie,birdie,target,36,14,0.72,-0.14655172413793105,1,NA,0,NA,1,1200,1200,1200,-3,target
40_40_ronfard_2021_22,43,40,ronfard_2021,22,cat,cat,target,58,0,1,0.4137931034482759,1,NA,1,NA,0,1933.3333333333335,1933.3333333333335,1933.3333333333335,-3,target
40_40_ronfard_2021_22,51,40,ronfard_2021,22,shoe,shoe,target,0,58,0,-0.10344827586206896,NA,NA,0,NA,0,NA,NA,NA,-3,target
41_41_ronfard_2021_24,8,41,ronfard_2021,24,shoe,shoe,target,16,38,0.2962962962962963,0.3017241379310345,1,NA,0,NA,1,533.3333333333334,533.3333333333334,533.3333333333334,-1,target
41_41_ronfard_2021_24,10,41,ronfard_2021,24,baby,baby,target,31,23,0.5740740740740741,0.32758620689655177,1,NA,0,NA,1,1033.3333333333335,1033.3333333333335,1033.3333333333335,-1,target
41_41_ronfard_2021_24,17,41,ronfard_2021,24,cat,cat,target,58,0,1,NA,1,NA,1,NA,0,1933.3333333333335,1933.3333333333335,1933.3333333333335,-1,target
41_41_ronfard_2021_24,24,41,ronfard_2021,24,cat,cat,target,58,0,1,NA,1,NA,1,NA,0,1933.3333333333335,1933.3333333333335,1933.3333333333335,-1,target
41_41_ronfard_2021_24,34,41,ronfard_2021,24,shoe,shoe,target,27,27,0.5,0.3017241379310345,1,NA,0,NA,1,900.0000000000001,900.0000000000001,900.0000000000001,-1,target
41_41_ronfard_2021_24,41,41,ronfard_2021,24,car,car,target,40,8,0.8333333333333334,0.2844827586206897,1,NA,0,NA,1,966.6666666666667,966.6666666666667,966.6666666666667,-1,target
41_41_ronfard_2021_24,43,41,ronfard_2021,24,baby,baby,target,41,12,0.7735849056603774,0.32758620689655177,1,NA,0,NA,1,1366.6666666666667,1366.6666666666667,1366.6666666666667,-1,target
41_41_ronfard_2021_24,55,41,ronfard_2021,24,birdie,birdie,target,32,17,0.6530612244897959,0.25,1,NA,0,NA,1,1066.6666666666667,1066.6666666666667,1066.6666666666667,-1,target
41_41_ronfard_2021_24,60,41,ronfard_2021,24,car,car,target,58,0,1,0.2844827586206897,1,NA,1,NA,0,1933.3333333333335,1933.3333333333335,1933.3333333333335,-1,target
42_42_ronfard_2021_18,4,42,ronfard_2021,18,book,book,target,47,7,0.8703703703703703,0.7586206896551724,1,NA,0,NA,0,1566.6666666666667,1566.6666666666667,1566.6666666666667,-7,target
42_42_ronfard_2021_18,30,42,ronfard_2021,18,dog,dog,target,32,22,0.5925925925925926,0.2471264367816092,1,NA,0,NA,1,1066.6666666666667,1066.6666666666667,1066.6666666666667,-7,target
42_42_ronfard_2021_18,32,42,ronfard_2021,18,ball,ball,target,47,6,0.8867924528301887,0.7844827586206896,1,NA,0,NA,0,1566.6666666666667,1566.6666666666667,1566.6666666666667,-7,target
42_42_ronfard_2021_18,36,42,ronfard_2021,18,ball,ball,target,58,0,1,0.7844827586206896,1,NA,1,NA,0,1933.3333333333335,1933.3333333333335,1933.3333333333335,-7,target
42_42_ronfard_2021_18,39,42,ronfard_2021,18,dog,dog,target,9,46,0.16363636363636364,0.2471264367816092,NA,NA,0,NA,0,NA,300,NA,-7,target
42_42_ronfard_2021_18,54,42,ronfard_2021,18,cat,cat,target,36,14,0.72,0.1781609195402299,1,NA,0,NA,1,1200,1200,1200,-7,target
42_42_ronfard_2021_18,58,42,ronfard_2021,18,baby,baby,target,58,0,1,NA,1,NA,1,NA,0,1933.3333333333335,1933.3333333333335,1933.3333333333335,-7,target
42_42_ronfard_2021_18,60,42,ronfard_2021,18,dog,dog,target,44,9,0.8301886792452831,0.2471264367816092,1,NA,0,NA,1,1466.6666666666667,1466.6666666666667,1466.6666666666667,-7,target
43_43_ronfard_2021_18,3,43,ronfard_2021,18,dog,dog,target,49,6,0.8909090909090909,0.45689655172413796,1,NA,0,NA,0,1633.3333333333335,1633.3333333333335,1633.3333333333335,-7,target
43_43_ronfard_2021_18,19,43,ronfard_2021,18,cat,cat,target,23,31,0.42592592592592593,0.41379310344827586,1,NA,0,NA,1,766.6666666666667,766.6666666666667,766.6666666666667,-7,target
43_43_ronfard_2021_18,30,43,ronfard_2021,18,birdie,birdie,target,24,31,0.43636363636363634,NA,1,NA,0,NA,1,800,800,800,-7,target
43_43_ronfard_2021_18,34,43,ronfard_2021,18,birdie,birdie,target,32,23,0.5818181818181818,NA,1,NA,0,NA,1,1066.6666666666667,1066.6666666666667,1066.6666666666667,-7,target
43_43_ronfard_2021_18,39,43,ronfard_2021,18,dog,dog,target,58,0,1,0.45689655172413796,1,NA,1,NA,0,1933.3333333333335,1933.3333333333335,1933.3333333333335,-7,target
43_43_ronfard_2021_18,43,43,ronfard_2021,18,car,car,target,58,0,1,NA,1,NA,1,NA,0,1933.3333333333335,1933.3333333333335,1933.3333333333335,-7,target
43_43_ronfard_2021_18,47,43,ronfard_2021,18,book,book,target,58,0,1,0.646551724137931,1,NA,1,NA,0,1933.3333333333335,1933.3333333333335,1933.3333333333335,-7,target
43_43_ronfard_2021_18,48,43,ronfard_2021,18,ball,ball,target,10,41,0.19607843137254902,0.5862068965517241,NA,NA,0,NA,0,NA,300,NA,-7,target
43_43_ronfard_2021_18,51,43,ronfard_2021,18,cat,cat,target,29,26,0.5272727272727272,0.41379310344827586,1,NA,0,NA,1,966.6666666666667,966.6666666666667,966.6666666666667,-7,target
43_43_ronfard_2021_18,58,43,ronfard_2021,18,ball,ball,target,58,0,1,0.5862068965517241,1,NA,1,NA,0,1933.3333333333335,1933.3333333333335,1933.3333333333335,-7,target
43_43_ronfard_2021_18,60,43,ronfard_2021,18,dog,dog,target,58,0,1,0.45689655172413796,1,NA,1,NA,0,1933.3333333333335,1933.3333333333335,1933.3333333333335,-7,target
43_43_ronfard_2021_18,63,43,ronfard_2021,18,book,book,target,58,0,1,0.646551724137931,1,NA,1,NA,0,1933.3333333333335,1933.3333333333335,1933.3333333333335,-7,target
45_45_ronfard_2021_18,2,45,ronfard_2021,18,book,book,target,58,0,1,0.9094827586206896,1,NA,1,NA,0,1933.3333333333335,1933.3333333333335,1933.3333333333335,-7,target
45_45_ronfard_2021_18,5,45,ronfard_2021,18,shoe,shoe,target,45,9,0.8333333333333334,0.4339080459770115,1,NA,0,NA,1,1500,1500,1500,-7,target
45_45_ronfard_2021_18,8,45,ronfard_2021,18,baby,baby,target,58,0,1,0.8045977011494253,1,NA,1,NA,0,1933.3333333333335,1933.3333333333335,1933.3333333333335,-7,target
45_45_ronfard_2021_18,15,45,ronfard_2021,18,car,car,target,58,0,1,0.42241379310344823,1,NA,1,NA,0,1933.3333333333335,1933.3333333333335,1933.3333333333335,-7,target
45_45_ronfard_2021_18,20,45,ronfard_2021,18,book,book,target,37,16,0.6981132075471698,0.9094827586206896,1,NA,0,NA,1,1233.3333333333335,1233.3333333333335,1233.3333333333335,-7,target
45_45_ronfard_2021_18,21,45,ronfard_2021,18,ball,ball,target,58,0,1,0.9310344827586207,1,NA,1,NA,0,1933.3333333333335,1933.3333333333335,1933.3333333333335,-7,target
45_45_ronfard_2021_18,24,45,ronfard_2021,18,car,car,target,39,9,0.8125,0.42241379310344823,1,NA,0,NA,1,1300,1300,1300,-7,target
45_45_ronfard_2021_18,25,45,ronfard_2021,18,shoe,shoe,target,40,12,0.7692307692307693,0.4339080459770115,2,NA,0,NA,2,666.6666666666667,433.33333333333337,900.0000000000001,-7,target
45_45_ronfard_2021_18,28,45,ronfard_2021,18,dog,dog,target,58,0,1,1,1,NA,1,NA,0,1933.3333333333335,1933.3333333333335,1933.3333333333335,-7,target
45_45_ronfard_2021_18,35,45,ronfard_2021,18,birdie,birdie,target,41,9,0.82,0.6781609195402298,1,NA,0,NA,0,1366.6666666666667,1366.6666666666667,1366.6666666666667,-7,target
45_45_ronfard_2021_18,41,45,ronfard_2021,18,cat,cat,target,58,0,1,1,1,NA,1,NA,0,1933.3333333333335,1933.3333333333335,1933.3333333333335,-7,target
45_45_ronfard_2021_18,51,45,ronfard_2021,18,book,book,target,58,0,1,0.9094827586206896,1,NA,1,NA,0,1933.3333333333335,1933.3333333333335,1933.3333333333335,-7,target
45_45_ronfard_2021_18,53,45,ronfard_2021,18,baby,baby,target,51,5,0.9107142857142857,0.8045977011494253,1,NA,0,NA,0,1700.0000000000002,1700.0000000000002,1700.0000000000002,-7,target
45_45_ronfard_2021_18,56,45,ronfard_2021,18,baby,baby,target,58,0,1,0.8045977011494253,1,NA,1,NA,0,1933.3333333333335,1933.3333333333335,1933.3333333333335,-7,target
45_45_ronfard_2021_18,61,45,ronfard_2021,18,shoe,shoe,target,4,51,0.07272727272727272,0.4339080459770115,NA,NA,0,NA,0,NA,NA,NA,-7,target
45_45_ronfard_2021_18,63,45,ronfard_2021,18,book,book,target,58,0,1,0.9094827586206896,1,NA,1,NA,0,1933.3333333333335,1933.3333333333335,1933.3333333333335,-7,target
46_46_ronfard_2021_22,3,46,ronfard_2021,22,car,car,target,58,0,1,NA,1,NA,1,NA,0,1933.3333333333335,1933.3333333333335,1933.3333333333335,-3,target
46_46_ronfard_2021_22,15,46,ronfard_2021,22,birdie,birdie,target,58,0,1,NA,1,NA,1,NA,0,1933.3333333333335,1933.3333333333335,1933.3333333333335,-3,target
46_46_ronfard_2021_22,23,46,ronfard_2021,22,ball,ball,target,41,0,1,NA,1,NA,1,NA,0,1366.6666666666667,1366.6666666666667,1366.6666666666667,-3,target
46_46_ronfard_2021_22,26,46,ronfard_2021,22,car,car,target,38,13,0.7450980392156863,NA,1,NA,0,NA,1,1266.6666666666667,1266.6666666666667,1266.6666666666667,-3,target
46_46_ronfard_2021_22,30,46,ronfard_2021,22,dog,dog,target,33,20,0.6226415094339622,NA,1,NA,0,NA,1,1100,1100,1100,-3,target
46_46_ronfard_2021_22,32,46,ronfard_2021,22,ball,ball,target,16,28,0.36363636363636365,NA,1,NA,0,NA,1,533.3333333333334,533.3333333333334,533.3333333333334,-3,target
46_46_ronfard_2021_22,36,46,ronfard_2021,22,ball,ball,target,16,39,0.2909090909090909,NA,1,NA,0,NA,1,533.3333333333334,533.3333333333334,533.3333333333334,-3,target
46_46_ronfard_2021_22,60,46,ronfard_2021,22,dog,dog,target,58,0,1,NA,1,NA,1,NA,0,1933.3333333333335,1933.3333333333335,1933.3333333333335,-3,target
47_47_ronfard_2021_20,1,47,ronfard_2021,20,dog,dog,target,41,7,0.8541666666666666,0.853448275862069,1,NA,0,NA,0,1366.6666666666667,1366.6666666666667,1366.6666666666667,-5,target
47_47_ronfard_2021_20,3,47,ronfard_2021,20,car,car,target,32,19,0.6274509803921569,0.8045977011494253,2,NA,0,NA,2,533.3333333333334,566.6666666666667,566.6666666666667,-5,target
47_47_ronfard_2021_20,4,47,ronfard_2021,20,book,book,target,58,0,1,0.4195402298850575,1,NA,1,NA,0,1933.3333333333335,1933.3333333333335,1933.3333333333335,-5,target
47_47_ronfard_2021_20,7,47,ronfard_2021,20,shoe,shoe,target,36,0,1,0.5114942528735632,1,NA,1,NA,0,1200,1200,1200,-5,target
47_47_ronfard_2021_20,8,47,ronfard_2021,20,cat,cat,target,48,0,1,0.7672413793103449,2,NA,1,NA,0,800,500.00000000000006,1100,-5,target
47_47_ronfard_2021_20,15,47,ronfard_2021,20,birdie,birdie,target,30,20,0.6,0.5172413793103449,2,NA,0,NA,2,500,533.3333333333334,533.3333333333334,-5,target
47_47_ronfard_2021_20,16,47,ronfard_2021,20,ball,ball,target,51,5,0.9107142857142857,0.42528735632183906,1,NA,0,NA,0,1700.0000000000002,1700.0000000000002,1700.0000000000002,-5,target
47_47_ronfard_2021_20,17,47,ronfard_2021,20,car,car,target,50,0,1,0.8045977011494253,2,NA,1,NA,0,833.3333333333334,700,966.6666666666667,-5,target
47_47_ronfard_2021_20,19,47,ronfard_2021,20,baby,baby,target,58,0,1,0.6551724137931034,1,NA,1,NA,0,1933.3333333333335,1933.3333333333335,1933.3333333333335,-5,target
47_47_ronfard_2021_20,22,47,ronfard_2021,20,book,book,target,9,46,0.16363636363636364,0.4195402298850575,NA,NA,0,NA,0,NA,300,NA,-5,target
47_47_ronfard_2021_20,23,47,ronfard_2021,20,ball,ball,target,39,17,0.6964285714285714,0.42528735632183906,1,NA,0,NA,1,1300,1300,1300,-5,target
47_47_ronfard_2021_20,26,47,ronfard_2021,20,car,car,target,58,0,1,0.8045977011494253,1,NA,1,NA,0,1933.3333333333335,1933.3333333333335,1933.3333333333335,-5,target
47_47_ronfard_2021_20,39,47,ronfard_2021,20,dog,dog,target,58,0,1,0.853448275862069,1,NA,1,NA,0,1933.3333333333335,1933.3333333333335,1933.3333333333335,-5,target
47_47_ronfard_2021_20,53,47,ronfard_2021,20,book,book,target,39,15,0.7222222222222222,0.4195402298850575,1,NA,0,NA,1,1300,1300,1300,-5,target
48_48_ronfard_2021_22,3,48,ronfard_2021,22,car,car,target,17,37,0.3148148148148148,0.764367816091954,1,NA,0,NA,1,566.6666666666667,566.6666666666667,566.6666666666667,-3,target
48_48_ronfard_2021_22,8,48,ronfard_2021,22,cat,cat,target,16,33,0.32653061224489793,NA,1,NA,0,NA,1,533.3333333333334,533.3333333333334,533.3333333333334,-3,target
48_48_ronfard_2021_22,10,48,ronfard_2021,22,baby,baby,target,33,0,1,NA,1,NA,1,NA,0,1100,1100,1100,-3,target
48_48_ronfard_2021_22,17,48,ronfard_2021,22,car,car,target,58,0,1,0.764367816091954,1,NA,1,NA,0,1933.3333333333335,1933.3333333333335,1933.3333333333335,-3,target
48_48_ronfard_2021_22,19,48,ronfard_2021,22,baby,baby,target,58,0,1,NA,1,NA,1,NA,0,1933.3333333333335,1933.3333333333335,1933.3333333333335,-3,target
48_48_ronfard_2021_22,23,48,ronfard_2021,22,ball,ball,target,58,0,1,NA,1,NA,1,NA,0,1933.3333333333335,1933.3333333333335,1933.3333333333335,-3,target
48_48_ronfard_2021_22,48,48,ronfard_2021,22,car,car,target,58,0,1,0.764367816091954,1,NA,1,NA,0,1933.3333333333335,1933.3333333333335,1933.3333333333335,-3,target
48_48_ronfard_2021_22,51,48,ronfard_2021,22,shoe,shoe,target,58,0,1,0.7873563218390804,1,NA,1,NA,0,1933.3333333333335,1933.3333333333335,1933.3333333333335,-3,target
48_48_ronfard_2021_22,54,48,ronfard_2021,22,cat,cat,target,39,10,0.7959183673469388,NA,1,NA,0,NA,0,1300,1300,1300,-3,target
49_49_ronfard_2021_19,13,49,ronfard_2021,19,baby,baby,target,58,0,1,1,1,NA,1,NA,0,1933.3333333333335,1933.3333333333335,1933.3333333333335,-6,target
49_49_ronfard_2021_19,17,49,ronfard_2021,19,cat,cat,target,58,0,1,1,1,NA,1,NA,0,1933.3333333333335,1933.3333333333335,1933.3333333333335,-6,target
49_49_ronfard_2021_19,20,49,ronfard_2021,19,birdie,birdie,target,58,0,1,1,1,NA,1,NA,0,1933.3333333333335,1933.3333333333335,1933.3333333333335,-6,target
49_49_ronfard_2021_19,39,49,ronfard_2021,19,ball,ball,target,58,0,1,NA,1,NA,1,NA,0,1933.3333333333335,1933.3333333333335,1933.3333333333335,-6,target
49_49_ronfard_2021_19,58,49,ronfard_2021,19,dog,dog,target,58,0,1,1,1,NA,1,NA,0,1933.3333333333335,1933.3333333333335,1933.3333333333335,-6,target
50_50_ronfard_2021_18,1,50,ronfard_2021,18,shoe,shoe,target,44,9,0.8301886792452831,0.02298850574712652,1,NA,0,NA,1,1466.6666666666667,1466.6666666666667,1466.6666666666667,-7,target
50_50_ronfard_2021_18,5,50,ronfard_2021,18,shoe,shoe,target,27,24,0.5294117647058824,0.02298850574712652,1,NA,0,NA,1,833.3333333333334,833.3333333333334,833.3333333333334,-7,target
50_50_ronfard_2021_18,10,50,ronfard_2021,18,baby,baby,target,47,3,0.94,NA,1,NA,0,NA,0,1566.6666666666667,1566.6666666666667,1566.6666666666667,-7,target
50_50_ronfard_2021_18,20,50,ronfard_2021,18,car,car,target,13,41,0.24074074074074073,0,1,NA,0,NA,1,433.33333333333337,433.33333333333337,433.33333333333337,-7,target
50_50_ronfard_2021_18,21,50,ronfard_2021,18,cat,cat,target,12,40,0.23076923076923078,-0.3017241379310345,1,NA,0,NA,1,400,400,400,-7,target
50_50_ronfard_2021_18,30,50,ronfard_2021,18,car,car,target,12,37,0.24489795918367346,0,1,NA,0,NA,1,400,400,400,-7,target
50_50_ronfard_2021_18,34,50,ronfard_2021,18,dog,dog,target,7,47,0.12962962962962962,-0.22413793103448276,NA,NA,0,NA,0,NA,233.33333333333334,NA,-7,target
50_50_ronfard_2021_18,36,50,ronfard_2021,18,ball,ball,target,12,43,0.21818181818181817,NA,1,NA,0,NA,1,400,400,400,-7,target
50_50_ronfard_2021_18,38,50,ronfard_2021,18,car,car,target,8,47,0.14545454545454545,0,NA,NA,0,NA,0,NA,266.6666666666667,NA,-7,target
50_50_ronfard_2021_18,40,50,ronfard_2021,18,baby,baby,target,43,2,0.9555555555555556,NA,1,NA,0,NA,0,1366.6666666666667,1366.6666666666667,1366.6666666666667,-7,target
50_50_ronfard_2021_18,46,50,ronfard_2021,18,cat,cat,target,47,0,1,-0.3017241379310345,1,NA,1,NA,0,1566.6666666666667,1566.6666666666667,1566.6666666666667,-7,target
50_50_ronfard_2021_18,48,50,ronfard_2021,18,baby,baby,target,40,14,0.7407407407407407,NA,1,NA,0,NA,1,1333.3333333333335,1333.3333333333335,1333.3333333333335,-7,target
50_50_ronfard_2021_18,62,50,ronfard_2021,18,shoe,shoe,target,58,0,1,0.02298850574712652,1,NA,1,NA,0,1933.3333333333335,1933.3333333333335,1933.3333333333335,-7,target
51_51_ronfard_2021_21,1,51,ronfard_2021,21,car,car,target,42,9,0.8235294117647058,NA,1,NA,0,NA,1,1300,1300,1300,-4,target
51_51_ronfard_2021_21,6,51,ronfard_2021,21,cat,cat,target,12,42,0.2222222222222222,NA,1,NA,0,NA,1,400,400,400,-4,target
51_51_ronfard_2021_21,8,51,ronfard_2021,21,baby,baby,target,58,0,1,NA,1,NA,1,NA,0,1933.3333333333335,1933.3333333333335,1933.3333333333335,-4,target
51_51_ronfard_2021_21,17,51,ronfard_2021,21,baby,baby,target,11,45,0.19642857142857142,NA,NA,NA,0,NA,0,NA,366.6666666666667,NA,-4,target
51_51_ronfard_2021_21,20,51,ronfard_2021,21,book,book,target,58,0,1,NA,1,NA,1,NA,0,1933.3333333333335,1933.3333333333335,1933.3333333333335,-4,target
51_51_ronfard_2021_21,46,51,ronfard_2021,21,car,car,target,20,35,0.36363636363636365,NA,1,NA,0,NA,1,666.6666666666667,666.6666666666667,666.6666666666667,-4,target
51_51_ronfard_2021_21,52,51,ronfard_2021,21,cat,cat,target,58,0,1,NA,1,NA,1,NA,0,1933.3333333333335,1933.3333333333335,1933.3333333333335,-4,target
53_53_ronfard_2021_23,6,53,ronfard_2021,23,shoe,shoe,target,25,29,0.46296296296296297,NA,1,NA,0,NA,1,833.3333333333334,833.3333333333334,833.3333333333334,-2,target
53_53_ronfard_2021_23,12,53,ronfard_2021,23,baby,baby,target,58,0,1,0.18965517241379315,1,NA,1,NA,0,1933.3333333333335,1933.3333333333335,1933.3333333333335,-2,target
53_53_ronfard_2021_23,15,53,ronfard_2021,23,baby,baby,target,58,0,1,0.18965517241379315,1,NA,1,NA,0,1933.3333333333335,1933.3333333333335,1933.3333333333335,-2,target
53_53_ronfard_2021_23,26,53,ronfard_2021,23,cat,cat,target,26,24,0.52,NA,1,NA,0,NA,1,833.3333333333334,833.3333333333334,833.3333333333334,-2,target
53_53_ronfard_2021_23,29,53,ronfard_2021,23,ball,ball,target,58,0,1,NA,1,NA,1,NA,0,1933.3333333333335,1933.3333333333335,1933.3333333333335,-2,target
53_53_ronfard_2021_23,30,53,ronfard_2021,23,birdie,birdie,target,7,47,0.12962962962962962,0.1206896551724138,NA,NA,0,NA,0,NA,233.33333333333334,NA,-2,target
55_55_ronfard_2021_20,3,55,ronfard_2021,20,dog,dog,target,58,0,1,0.8505747126436781,1,NA,1,NA,0,1933.3333333333335,1933.3333333333335,1933.3333333333335,-5,target
55_55_ronfard_2021_20,7,55,ronfard_2021,20,book,book,target,25,20,0.5555555555555556,NA,1,NA,0,NA,1,833.3333333333334,833.3333333333334,833.3333333333334,-5,target
55_55_ronfard_2021_20,10,55,ronfard_2021,20,shoe,shoe,target,44,10,0.8148148148148148,0.7586206896551724,1,NA,0,NA,1,1466.6666666666667,1466.6666666666667,1466.6666666666667,-5,target
55_55_ronfard_2021_20,12,55,ronfard_2021,20,baby,baby,target,58,0,1,0.9137931034482758,1,NA,1,NA,0,1933.3333333333335,1933.3333333333335,1933.3333333333335,-5,target
55_55_ronfard_2021_20,21,55,ronfard_2021,20,cat,cat,target,58,0,1,0.8045977011494253,1,NA,1,NA,0,1933.3333333333335,1933.3333333333335,1933.3333333333335,-5,target
55_55_ronfard_2021_20,25,55,ronfard_2021,20,car,car,target,49,0,1,0.75,2,NA,1,NA,0,816.6666666666667,1066.6666666666667,1066.6666666666667,-5,target
55_55_ronfard_2021_20,26,55,ronfard_2021,20,cat,cat,target,27,25,0.5192307692307693,0.8045977011494253,1,NA,0,NA,1,800,800,800,-5,target
55_55_ronfard_2021_20,30,55,ronfard_2021,20,birdie,birdie,target,58,0,1,0.8620689655172413,1,NA,1,NA,0,1933.3333333333335,1933.3333333333335,1933.3333333333335,-5,target
55_55_ronfard_2021_20,32,55,ronfard_2021,20,dog,dog,target,58,0,1,0.8505747126436781,1,NA,1,NA,0,1933.3333333333335,1933.3333333333335,1933.3333333333335,-5,target
55_55_ronfard_2021_20,35,55,ronfard_2021,20,car,car,target,58,0,1,0.75,1,NA,1,NA,0,1933.3333333333335,1933.3333333333335,1933.3333333333335,-5,target
55_55_ronfard_2021_20,51,55,ronfard_2021,20,cat,cat,target,55,1,0.9821428571428571,0.8045977011494253,1,NA,0,NA,0,1833.3333333333335,1833.3333333333335,1833.3333333333335,-5,target
55_55_ronfard_2021_20,57,55,ronfard_2021,20,birdie,birdie,target,42,10,0.8076923076923077,0.8620689655172413,2,NA,0,NA,2,700,933.3333333333334,933.3333333333334,-5,target
57_57_ronfard_2021_18,9,57,ronfard_2021,18,cat,cat,target,8,44,0.15384615384615385,NA,NA,NA,0,NA,0,NA,NA,NA,-7,target
57_57_ronfard_2021_18,17,57,ronfard_2021,18,birdie,birdie,target,48,6,0.8888888888888888,NA,1,NA,0,NA,0,1600,1600,1600,-7,target
57_57_ronfard_2021_18,24,57,ronfard_2021,18,ball,ball,target,31,21,0.5961538461538461,NA,1,NA,0,NA,1,733.3333333333334,300,733.3333333333334,-7,target
57_57_ronfard_2021_18,36,57,ronfard_2021,18,ball,ball,target,44,8,0.8461538461538461,NA,2,NA,0,NA,2,733.3333333333334,500.00000000000006,966.6666666666667,-7,target
57_57_ronfard_2021_18,43,57,ronfard_2021,18,ball,ball,target,35,19,0.6481481481481481,NA,1,NA,0,NA,1,1166.6666666666667,1166.6666666666667,1166.6666666666667,-7,target
57_57_ronfard_2021_18,62,57,ronfard_2021,18,shoe,shoe,target,58,0,1,NA,1,NA,1,NA,0,1933.3333333333335,1933.3333333333335,1933.3333333333335,-7,target
58_58_ronfard_2021_21,1,58,ronfard_2021,21,dog,dog,target,58,0,1,1,1,NA,1,NA,0,1933.3333333333335,1933.3333333333335,1933.3333333333335,-4,target
58_58_ronfard_2021_21,3,58,ronfard_2021,21,car,car,target,58,0,1,NA,1,NA,1,NA,0,1933.3333333333335,1933.3333333333335,1933.3333333333335,-4,target
58_58_ronfard_2021_21,10,58,ronfard_2021,21,baby,baby,target,58,0,1,1,1,NA,1,NA,0,1933.3333333333335,1933.3333333333335,1933.3333333333335,-4,target
58_58_ronfard_2021_21,17,58,ronfard_2021,21,car,car,target,58,0,1,NA,1,NA,1,NA,0,1933.3333333333335,1933.3333333333335,1933.3333333333335,-4,target
58_58_ronfard_2021_21,30,58,ronfard_2021,21,dog,dog,target,58,0,1,1,1,NA,1,NA,0,1933.3333333333335,1933.3333333333335,1933.3333333333335,-4,target
58_58_ronfard_2021_21,32,58,ronfard_2021,21,ball,ball,target,58,0,1,NA,1,NA,1,NA,0,1933.3333333333335,1933.3333333333335,1933.3333333333335,-4,target
58_58_ronfard_2021_21,45,58,ronfard_2021,21,birdie,birdie,target,58,0,1,1,1,NA,1,NA,0,1933.3333333333335,1933.3333333333335,1933.3333333333335,-4,target
58_58_ronfard_2021_21,54,58,ronfard_2021,21,cat,cat,target,58,0,1,1,1,NA,1,NA,0,1933.3333333333335,1933.3333333333335,1933.3333333333335,-4,target
58_58_ronfard_2021_21,55,58,ronfard_2021,21,baby,baby,target,58,0,1,1,1,NA,1,NA,0,1933.3333333333335,1933.3333333333335,1933.3333333333335,-4,target
59_59_ronfard_2021_18,1,59,ronfard_2021,18,dog,dog,target,15,39,0.2777777777777778,0.146551724137931,1,NA,0,NA,1,500.00000000000006,500.00000000000006,500.00000000000006,-7,target
59_59_ronfard_2021_18,4,59,ronfard_2021,18,book,book,target,27,26,0.5094339622641509,0.03448275862068967,1,NA,0,NA,1,900.0000000000001,900.0000000000001,900.0000000000001,-7,target
59_59_ronfard_2021_18,8,59,ronfard_2021,18,cat,cat,target,13,37,0.26,0.07758620689655171,NA,NA,0,NA,0,NA,333.33333333333337,NA,-7,target
59_59_ronfard_2021_18,10,59,ronfard_2021,18,baby,baby,target,49,0,1,NA,1,NA,1,NA,0,1600,1600,1600,-7,target
59_59_ronfard_2021_18,19,59,ronfard_2021,18,baby,baby,target,58,0,1,NA,1,NA,1,NA,0,1933.3333333333335,1933.3333333333335,1933.3333333333335,-7,target
59_59_ronfard_2021_18,26,59,ronfard_2021,18,car,car,target,58,0,1,NA,1,NA,1,NA,0,1933.3333333333335,1933.3333333333335,1933.3333333333335,-7,target
59_59_ronfard_2021_18,30,59,ronfard_2021,18,dog,dog,target,58,0,1,0.146551724137931,1,NA,1,NA,0,1933.3333333333335,1933.3333333333335,1933.3333333333335,-7,target
59_59_ronfard_2021_18,32,59,ronfard_2021,18,ball,ball,target,26,25,0.5098039215686274,0,1,NA,0,NA,1,666.6666666666667,666.6666666666667,666.6666666666667,-7,target
59_59_ronfard_2021_18,49,59,ronfard_2021,18,cat,cat,target,35,19,0.6481481481481481,0.07758620689655171,1,NA,0,NA,1,1166.6666666666667,1166.6666666666667,1166.6666666666667,-7,target
60_60_ronfard_2021_22,3,60,ronfard_2021,22,car,car,target,27,25,0.5192307692307693,0.7327586206896551,2,NA,0,NA,2,450,433.33333333333337,466.6666666666667,-3,target
60_60_ronfard_2021_22,7,60,ronfard_2021,22,shoe,shoe,target,58,0,1,0.7844827586206897,1,NA,1,NA,0,1933.3333333333335,1933.3333333333335,1933.3333333333335,-3,target
60_60_ronfard_2021_22,15,60,ronfard_2021,22,birdie,birdie,target,58,0,1,NA,1,NA,1,NA,0,1933.3333333333335,1933.3333333333335,1933.3333333333335,-3,target
60_60_ronfard_2021_22,26,60,ronfard_2021,22,car,car,target,58,0,1,0.7327586206896551,1,NA,1,NA,0,1933.3333333333335,1933.3333333333335,1933.3333333333335,-3,target
60_60_ronfard_2021_22,41,60,ronfard_2021,22,birdie,birdie,target,58,0,1,NA,1,NA,1,NA,0,1933.3333333333335,1933.3333333333335,1933.3333333333335,-3,target
61_61_ronfard_2021_18,7,61,ronfard_2021,18,shoe,shoe,target,58,0,1,0.6551724137931034,1,NA,1,NA,0,1933.3333333333335,1933.3333333333335,1933.3333333333335,-7,target
61_61_ronfard_2021_18,8,61,ronfard_2021,18,cat,cat,target,34,20,0.6296296296296297,NA,1,NA,0,NA,1,1133.3333333333335,1133.3333333333335,1133.3333333333335,-7,target
61_61_ronfard_2021_18,10,61,ronfard_2021,18,baby,baby,target,58,0,1,0.8448275862068966,1,NA,1,NA,0,1933.3333333333335,1933.3333333333335,1933.3333333333335,-7,target
61_61_ronfard_2021_18,16,61,ronfard_2021,18,ball,ball,target,58,0,1,0.4367816091954024,1,NA,1,NA,0,1933.3333333333335,1933.3333333333335,1933.3333333333335,-7,target
61_61_ronfard_2021_18,17,61,ronfard_2021,18,car,car,target,58,0,1,0.6293103448275863,1,NA,1,NA,0,1933.3333333333335,1933.3333333333335,1933.3333333333335,-7,target
61_61_ronfard_2021_18,22,61,ronfard_2021,18,book,book,target,25,22,0.5319148936170213,0.3850574712643678,1,NA,0,NA,1,666.6666666666667,666.6666666666667,666.6666666666667,-7,target
61_61_ronfard_2021_18,23,61,ronfard_2021,18,ball,ball,target,29,27,0.5178571428571429,0.4367816091954024,1,NA,0,NA,1,966.6666666666667,966.6666666666667,966.6666666666667,-7,target
61_61_ronfard_2021_18,26,61,ronfard_2021,18,car,car,target,25,26,0.49019607843137253,0.6293103448275863,1,NA,0,NA,1,833.3333333333334,833.3333333333334,833.3333333333334,-7,target
61_61_ronfard_2021_18,27,61,ronfard_2021,18,shoe,shoe,target,58,0,1,0.6551724137931034,1,NA,1,NA,0,1933.3333333333335,1933.3333333333335,1933.3333333333335,-7,target
61_61_ronfard_2021_18,36,61,ronfard_2021,18,ball,ball,target,40,11,0.7843137254901961,0.4367816091954024,1,NA,0,NA,1,1166.6666666666667,1166.6666666666667,1166.6666666666667,-7,target
61_61_ronfard_2021_18,37,61,ronfard_2021,18,birdie,birdie,target,44,10,0.8148148148148148,0.7586206896551724,1,NA,0,NA,1,1466.6666666666667,1466.6666666666667,1466.6666666666667,-7,target
61_61_ronfard_2021_18,41,61,ronfard_2021,18,birdie,birdie,target,44,0,1,0.7586206896551724,1,NA,1,NA,0,1466.6666666666667,1466.6666666666667,1466.6666666666667,-7,target
61_61_ronfard_2021_18,49,61,ronfard_2021,18,cat,cat,target,30,20,0.6,NA,1,NA,0,NA,1,733.3333333333334,266.6666666666667,733.3333333333334,-7,target
61_61_ronfard_2021_18,51,61,ronfard_2021,18,shoe,shoe,target,37,15,0.7115384615384616,0.6551724137931034,1,NA,0,NA,1,966.6666666666667,266.6666666666667,966.6666666666667,-7,target
61_61_ronfard_2021_18,53,61,ronfard_2021,18,book,book,target,58,0,1,0.3850574712643678,1,NA,1,NA,0,1933.3333333333335,1933.3333333333335,1933.3333333333335,-7,target
61_61_ronfard_2021_18,54,61,ronfard_2021,18,cat,cat,target,24,26,0.48,NA,1,NA,0,NA,1,800,800,800,-7,target
61_61_ronfard_2021_18,55,61,ronfard_2021,18,baby,baby,target,50,0,1,0.8448275862068966,1,NA,1,NA,0,1433.3333333333335,1433.3333333333335,1433.3333333333335,-7,target
61_61_ronfard_2021_18,65,61,ronfard_2021,18,book,book,target,22,29,0.43137254901960786,0.3850574712643678,1,NA,0,NA,1,633.3333333333334,633.3333333333334,633.3333333333334,-7,target
62_62_ronfard_2021_18,7,62,ronfard_2021,18,baby,baby,target,39,17,0.6964285714285714,NA,1,NA,0,NA,1,1300,1300,1300,-7,target
62_62_ronfard_2021_18,21,62,ronfard_2021,18,cat,cat,target,9,44,0.16981132075471697,-0.43103448275862066,NA,NA,0,NA,0,NA,300,NA,-7,target
62_62_ronfard_2021_18,24,62,ronfard_2021,18,ball,ball,target,25,29,0.46296296296296297,NA,1,NA,0,NA,1,833.3333333333334,833.3333333333334,833.3333333333334,-7,target
62_62_ronfard_2021_18,30,62,ronfard_2021,18,car,car,target,36,18,0.6666666666666666,NA,1,NA,0,NA,1,1200,1200,1200,-7,target
62_62_ronfard_2021_18,55,62,ronfard_2021,18,dog,dog,target,20,34,0.37037037037037035,-0.4137931034482758,1,NA,0,NA,1,666.6666666666667,666.6666666666667,666.6666666666667,-7,target
108_108_pomper_saffran_2016_46,2,108,pomper_saffran_2016,46,red,red,target,87,17,0.8365384615384616,NA,1,NA,1,NA,1,2900,2900,2900,21,target
108_108_pomper_saffran_2016_46,3,108,pomper_saffran_2016,46,yellow,yellow,target,106,0,1,NA,1,NA,1,NA,0,3533.3333333333335,3533.3333333333335,3533.3333333333335,21,target
108_108_pomper_saffran_2016_46,7,108,pomper_saffran_2016,46,orange,orange,target,59,0,1,NA,1,NA,1,NA,0,1966.6666666666667,1966.6666666666667,1966.6666666666667,21,target
108_108_pomper_saffran_2016_46,9,108,pomper_saffran_2016,46,bucket,bucket,target,68,34,0.6666666666666666,NA,1,NA,0,NA,1,2100,2100,2100,21,target
108_108_pomper_saffran_2016_46,14,108,pomper_saffran_2016,46,bib,bib,target,72,29,0.7128712871287128,NA,2,NA,0,NA,2,1200,766.6666666666667,1633.3333333333335,21,target
108_108_pomper_saffran_2016_46,15,108,pomper_saffran_2016,46,necklace,necklace,target,84,21,0.8,NA,1,NA,1,NA,1,2800,2800,2800,21,target
108_108_pomper_saffran_2016_46,16,108,pomper_saffran_2016,46,scissors,scissors,target,73,0,1,NA,1,NA,1,NA,0,2433.3333333333335,2433.3333333333335,2433.3333333333335,21,target
109_109_pomper_saffran_2016_43,1,109,pomper_saffran_2016,43,slide,slide,target,52,49,0.5148514851485149,NA,1,NA,0,NA,1,1733.3333333333335,1733.3333333333335,1733.3333333333335,18,target
109_109_pomper_saffran_2016_43,3,109,pomper_saffran_2016,43,zipper,zipper,target,51,48,0.5151515151515151,NA,1,NA,0,NA,1,1333.3333333333335,1333.3333333333335,1333.3333333333335,18,target
109_109_pomper_saffran_2016_43,4,109,pomper_saffran_2016,43,flag,flag,target,52,45,0.5360824742268041,NA,1,NA,0,NA,1,1633.3333333333335,1633.3333333333335,1633.3333333333335,18,target
109_109_pomper_saffran_2016_43,5,109,pomper_saffran_2016,43,belt,belt,target,77,22,0.7777777777777778,NA,1,NA,1,NA,1,2566.666666666667,2566.666666666667,2566.666666666667,18,target
109_109_pomper_saffran_2016_43,7,109,pomper_saffran_2016,43,dress,dress,target,106,0,1,NA,1,NA,1,NA,0,3533.3333333333335,3533.3333333333335,3533.3333333333335,18,target
109_109_pomper_saffran_2016_43,8,109,pomper_saffran_2016,43,pudding,pudding,target,82,19,0.8118811881188119,NA,2,NA,0,NA,2,1366.6666666666667,500.00000000000006,2233.3333333333335,18,target
109_109_pomper_saffran_2016_43,10,109,pomper_saffran_2016,43,blue,blue,target,86,14,0.86,NA,1,NA,0,NA,1,2866.666666666667,2866.666666666667,2866.666666666667,18,target
109_109_pomper_saffran_2016_43,11,109,pomper_saffran_2016,43,black,black,target,106,0,1,0.7641509433962264,1,NA,1,NA,0,3533.3333333333335,3533.3333333333335,3533.3333333333335,18,target
109_109_pomper_saffran_2016_43,13,109,pomper_saffran_2016,43,yellow,yellow,target,77,25,0.7549019607843137,0.7264150943396226,1,NA,1,NA,1,2566.666666666667,2566.666666666667,2566.666666666667,18,target
110_110_pomper_saffran_2016_47,1,110,pomper_saffran_2016,47,blue,blue,target,56,34,0.6222222222222222,NA,1,NA,0,NA,1,1866.6666666666667,1866.6666666666667,1866.6666666666667,22,target
110_110_pomper_saffran_2016_47,2,110,pomper_saffran_2016,47,green,green,target,58,0,1,NA,2,NA,1,NA,0,966.6666666666667,700,1233.3333333333335,22,target
110_110_pomper_saffran_2016_47,5,110,pomper_saffran_2016,47,green,green,target,106,0,1,NA,1,NA,1,NA,0,3533.3333333333335,3533.3333333333335,3533.3333333333335,22,target
110_110_pomper_saffran_2016_47,8,110,pomper_saffran_2016,47,white,white,target,53,49,0.5196078431372549,NA,1,NA,0,NA,1,1766.6666666666667,1766.6666666666667,1766.6666666666667,22,target
110_110_pomper_saffran_2016_47,10,110,pomper_saffran_2016,47,purse,purse,target,93,8,0.9207920792079208,NA,2,NA,0,NA,0,1550,800,2300,22,target
110_110_pomper_saffran_2016_47,11,110,pomper_saffran_2016,47,shovel,shovel,target,106,0,1,NA,1,NA,1,NA,0,3533.3333333333335,3533.3333333333335,3533.3333333333335,22,target
110_110_pomper_saffran_2016_47,14,110,pomper_saffran_2016,47,comb,comb,target,106,0,1,NA,1,NA,1,NA,0,3533.3333333333335,3533.3333333333335,3533.3333333333335,22,target
110_110_pomper_saffran_2016_47,16,110,pomper_saffran_2016,47,plate,plate,target,28,50,0.358974358974359,NA,1,NA,0,NA,1,666.6666666666667,666.6666666666667,666.6666666666667,22,target
111_111_pomper_saffran_2016_42,2,111,pomper_saffran_2016,42,boot,boot,target,67,35,0.6568627450980392,NA,1,NA,1,NA,1,2233.3333333333335,2233.3333333333335,2233.3333333333335,17,target
111_111_pomper_saffran_2016_42,6,111,pomper_saffran_2016,42,puzzle,puzzle,target,95,7,0.9313725490196079,NA,1,NA,1,NA,0,3166.666666666667,3166.666666666667,3166.666666666667,17,target
111_111_pomper_saffran_2016_42,7,111,pomper_saffran_2016,42,glasses,glasses,target,81,10,0.8901098901098901,NA,1,NA,1,NA,0,2700,2700,2700,17,target
111_111_pomper_saffran_2016_42,10,111,pomper_saffran_2016,42,orange,orange,target,82,18,0.82,NA,1,NA,0,NA,1,2600,2600,2600,17,target
111_111_pomper_saffran_2016_42,12,111,pomper_saffran_2016,42,white,white,target,53,44,0.5463917525773195,0.39622641509433965,2,NA,0,NA,1,883.3333333333334,800,966.6666666666667,17,target
111_111_pomper_saffran_2016_42,14,111,pomper_saffran_2016,42,red,red,target,79,21,0.79,NA,2,NA,0,NA,2,1316.6666666666667,666.6666666666667,1966.6666666666667,17,target
111_111_pomper_saffran_2016_42,15,111,pomper_saffran_2016,42,brown,brown,target,90,11,0.8910891089108911,0.4339622641509434,1,NA,0,NA,0,2766.666666666667,233.33333333333334,2766.666666666667,17,target
112_112_pomper_saffran_2016_43,1,112,pomper_saffran_2016,43,orange,orange,target,106,0,1,NA,1,NA,1,NA,0,3533.3333333333335,3533.3333333333335,3533.3333333333335,18,target
112_112_pomper_saffran_2016_43,5,112,pomper_saffran_2016,43,red,red,target,97,4,0.9603960396039604,NA,1,NA,0,NA,0,3233.3333333333335,3233.3333333333335,3233.3333333333335,18,target
112_112_pomper_saffran_2016_43,7,112,pomper_saffran_2016,43,orange,orange,target,96,0,1,NA,1,NA,1,NA,0,3200,3200,3200,18,target
