recording_name,trial_number,subject_id,dataset_name,age_months,target_word,media_name,initial_look,samples_target,samples_distractor,prop_looking,prop_looking_diff,number_fixations,correct_shift,remain_on_target,latency_to_switch,total_aoi_switches,duration_of_look,first_look_dur,longest_look_by_trial,age_months_centred,data_split
108_pomper_saffran_2016_46,2,108,pomper_saffran_2016,46,red,red,target,87,17,0.8365384615384616,NA,1,NA,1,NA,1,2900,2900,2900,21,target
108_pomper_saffran_2016_46,3,108,pomper_saffran_2016,46,yellow,yellow,target,106,0,1,NA,1,NA,1,NA,0,3533.3333333333335,3533.3333333333335,3533.3333333333335,21,target
108_pomper_saffran_2016_46,7,108,pomper_saffran_2016,46,orange,orange,target,59,0,1,NA,1,NA,1,NA,0,1966.6666666666667,1966.6666666666667,1966.6666666666667,21,target
109_pomper_saffran_2016_43,10,109,pomper_saffran_2016,43,blue,blue,target,86,14,0.86,NA,1,NA,0,NA,1,2866.666666666667,2866.666666666667,2866.666666666667,18,target
109_pomper_saffran_2016_43,11,109,pomper_saffran_2016,43,black,black,target,106,0,1,0.7641509433962264,1,NA,1,NA,0,3533.3333333333335,3533.3333333333335,3533.3333333333335,18,target
109_pomper_saffran_2016_43,13,109,pomper_saffran_2016,43,yellow,yellow,target,77,25,0.7549019607843137,0.7264150943396226,1,NA,1,NA,1,2566.666666666667,2566.666666666667,2566.666666666667,18,target
110_pomper_saffran_2016_47,1,110,pomper_saffran_2016,47,blue,blue,target,56,34,0.6222222222222222,NA,1,NA,0,NA,1,1866.6666666666667,1866.6666666666667,1866.6666666666667,22,target
110_pomper_saffran_2016_47,2,110,pomper_saffran_2016,47,green,green,target,58,0,1,NA,2,NA,1,NA,0,966.6666666666667,700,1233.3333333333335,22,target
110_pomper_saffran_2016_47,5,110,pomper_saffran_2016,47,green,green,target,106,0,1,NA,1,NA,1,NA,0,3533.3333333333335,3533.3333333333335,3533.3333333333335,22,target
110_pomper_saffran_2016_47,8,110,pomper_saffran_2016,47,white,white,target,53,49,0.5196078431372549,NA,1,NA,0,NA,1,1766.6666666666667,1766.6666666666667,1766.6666666666667,22,target
111_pomper_saffran_2016_42,10,111,pomper_saffran_2016,42,orange,orange,target,82,18,0.82,NA,1,NA,0,NA,1,2600,2600,2600,17,target
111_pomper_saffran_2016_42,12,111,pomper_saffran_2016,42,white,white,target,53,44,0.5463917525773195,0.39622641509433965,2,NA,0,NA,1,883.3333333333334,800,966.6666666666667,17,target
111_pomper_saffran_2016_42,14,111,pomper_saffran_2016,42,red,red,target,79,21,0.79,NA,2,NA,0,NA,2,1316.6666666666667,666.6666666666667,1966.6666666666667,17,target
111_pomper_saffran_2016_42,15,111,pomper_saffran_2016,42,brown,brown,target,90,11,0.8910891089108911,0.4339622641509434,1,NA,0,NA,0,2766.666666666667,233.33333333333334,2766.666666666667,17,target
112_pomper_saffran_2016_43,1,112,pomper_saffran_2016,43,orange,orange,target,106,0,1,NA,1,NA,1,NA,0,3533.3333333333335,3533.3333333333335,3533.3333333333335,18,target
112_pomper_saffran_2016_43,5,112,pomper_saffran_2016,43,red,red,target,97,4,0.9603960396039604,NA,1,NA,0,NA,0,3233.3333333333335,3233.3333333333335,3233.3333333333335,18,target
112_pomper_saffran_2016_43,7,112,pomper_saffran_2016,43,orange,orange,target,96,0,1,NA,1,NA,1,NA,0,3200,3200,3200,18,target
113_pomper_saffran_2016_42,5,113,pomper_saffran_2016,42,yellow,yellow,target,77,7,0.9166666666666666,NA,1,NA,0,NA,0,2566.666666666667,2566.666666666667,2566.666666666667,17,target
113_pomper_saffran_2016_42,7,113,pomper_saffran_2016,42,white,white,target,51,53,0.49038461538461536,NA,1,NA,0,NA,1,1700.0000000000002,1700.0000000000002,1700.0000000000002,17,target
113_pomper_saffran_2016_42,8,113,pomper_saffran_2016,42,blue,blue,target,57,41,0.5816326530612245,NA,2,NA,0,NA,2,950,600,1300,17,target
114_pomper_saffran_2016_42,9,114,pomper_saffran_2016,42,green,green,target,47,53,0.47,NA,1,NA,0,NA,1,1300,266.6666666666667,1300,17,target
114_pomper_saffran_2016_42,11,114,pomper_saffran_2016,42,black,black,target,103,0,1,NA,1,NA,1,NA,0,3433.3333333333335,3433.3333333333335,3433.3333333333335,17,target
114_pomper_saffran_2016_42,12,114,pomper_saffran_2016,42,brown,brown,target,83,17,0.83,NA,1,NA,0,NA,1,2466.666666666667,300,2466.666666666667,17,target
114_pomper_saffran_2016_42,16,114,pomper_saffran_2016,42,blue,blue,target,80,20,0.8,NA,1,NA,0,NA,1,2366.666666666667,300,2366.666666666667,17,target
115_pomper_saffran_2016_42,13,115,pomper_saffran_2016,42,red,red,target,106,0,1,NA,1,NA,1,NA,0,3533.3333333333335,3533.3333333333335,3533.3333333333335,17,target
115_pomper_saffran_2016_42,15,115,pomper_saffran_2016,42,orange,orange,target,67,28,0.7052631578947368,NA,1,NA,0,NA,1,2033.3333333333335,2033.3333333333335,2033.3333333333335,17,target
115_pomper_saffran_2016_42,16,115,pomper_saffran_2016,42,brown,brown,target,85,16,0.8415841584158416,NA,1,NA,0,NA,1,2466.666666666667,366.6666666666667,2466.666666666667,17,target
116_pomper_saffran_2016_45,1,116,pomper_saffran_2016,45,red,red,target,91,9,0.91,NA,1,NA,0,NA,0,2900,2900,2900,20,target
116_pomper_saffran_2016_45,6,116,pomper_saffran_2016,45,red,red,target,106,0,1,NA,1,NA,1,NA,0,3533.3333333333335,3533.3333333333335,3533.3333333333335,20,target
116_pomper_saffran_2016_45,8,116,pomper_saffran_2016,45,orange,orange,target,67,35,0.6568627450980392,NA,1,NA,1,NA,1,2233.3333333333335,2233.3333333333335,2233.3333333333335,20,target
117_pomper_saffran_2016_43,13,117,pomper_saffran_2016,43,green,green,target,86,17,0.8349514563106796,NA,1,NA,0,NA,1,2866.666666666667,2866.666666666667,2866.666666666667,18,target
117_pomper_saffran_2016_43,14,117,pomper_saffran_2016,43,yellow,yellow,target,106,0,1,NA,1,NA,1,NA,0,3533.3333333333335,3533.3333333333335,3533.3333333333335,18,target
117_pomper_saffran_2016_43,15,117,pomper_saffran_2016,43,blue,blue,target,106,0,1,NA,1,NA,1,NA,0,3533.3333333333335,3533.3333333333335,3533.3333333333335,18,target
117_pomper_saffran_2016_43,16,117,pomper_saffran_2016,43,white,white,target,68,5,0.9315068493150684,NA,1,NA,1,NA,0,2266.666666666667,2266.666666666667,2266.666666666667,18,target
118_pomper_saffran_2016_42,9,118,pomper_saffran_2016,42,red,red,target,79,19,0.8061224489795918,NA,2,NA,0,NA,2,1316.6666666666667,666.6666666666667,1966.6666666666667,17,target
118_pomper_saffran_2016_42,12,118,pomper_saffran_2016,42,white,white,target,42,55,0.4329896907216495,0.39622641509433965,1,NA,0,NA,1,1033.3333333333335,1033.3333333333335,1033.3333333333335,17,target
118_pomper_saffran_2016_42,15,118,pomper_saffran_2016,42,brown,brown,target,106,0,1,0.4811320754716981,1,NA,1,NA,0,3533.3333333333335,3533.3333333333335,3533.3333333333335,17,target
119_pomper_saffran_2016_43,2,119,pomper_saffran_2016,43,black,black,target,105,0,1,NA,1,NA,1,NA,0,3500.0000000000005,3500.0000000000005,3500.0000000000005,18,target
119_pomper_saffran_2016_43,6,119,pomper_saffran_2016,43,blue,blue,target,106,0,1,NA,1,NA,1,NA,0,3533.3333333333335,3533.3333333333335,3533.3333333333335,18,target
119_pomper_saffran_2016_43,7,119,pomper_saffran_2016,43,black,black,target,106,0,1,NA,1,NA,1,NA,0,3533.3333333333335,3533.3333333333335,3533.3333333333335,18,target
120_pomper_saffran_2016_42,11,120,pomper_saffran_2016,42,red,red,target,24,71,0.25263157894736843,NA,1,NA,0,NA,1,500.00000000000006,500.00000000000006,500.00000000000006,17,target
120_pomper_saffran_2016_42,12,120,pomper_saffran_2016,42,orange,orange,target,51,7,0.8793103448275862,NA,1,NA,0,NA,0,1466.6666666666667,1466.6666666666667,1466.6666666666667,17,target
121_pomper_saffran_2016_42,2,121,pomper_saffran_2016,42,blue,blue,target,84,13,0.865979381443299,NA,1,NA,1,NA,1,2800,2800,2800,17,target
121_pomper_saffran_2016_42,5,121,pomper_saffran_2016,42,yellow,yellow,target,106,0,1,NA,1,NA,1,NA,0,3533.3333333333335,3533.3333333333335,3533.3333333333335,17,target
121_pomper_saffran_2016_42,7,121,pomper_saffran_2016,42,white,white,target,83,16,0.8383838383838383,NA,1,NA,0,NA,1,2500,266.6666666666667,2500,17,target
121_pomper_saffran_2016_42,8,121,pomper_saffran_2016,42,blue,blue,target,72,25,0.7422680412371134,NA,1,NA,0,NA,1,2133.3333333333335,266.6666666666667,2133.3333333333335,17,target
122_pomper_saffran_2016_44,2,122,pomper_saffran_2016,44,yellow,yellow,target,106,0,1,NA,1,NA,1,NA,0,3533.3333333333335,3533.3333333333335,3533.3333333333335,19,target
122_pomper_saffran_2016_44,4,122,pomper_saffran_2016,44,orange,orange,target,83,17,0.83,NA,1,NA,0,NA,1,2633.3333333333335,2633.3333333333335,2633.3333333333335,19,target
122_pomper_saffran_2016_44,5,122,pomper_saffran_2016,44,white,white,target,95,6,0.9405940594059405,NA,1,NA,1,NA,0,3166.666666666667,3166.666666666667,3166.666666666667,19,target
122_pomper_saffran_2016_44,8,122,pomper_saffran_2016,44,red,red,target,106,0,1,NA,1,NA,1,NA,0,3533.3333333333335,3533.3333333333335,3533.3333333333335,19,target
123_pomper_saffran_2016_43,10,123,pomper_saffran_2016,43,white,white,target,74,27,0.7326732673267327,0.5188679245283019,1,NA,0,NA,1,2166.666666666667,300,2166.666666666667,18,target
123_pomper_saffran_2016_43,11,123,pomper_saffran_2016,43,green,green,target,68,32,0.68,NA,1,NA,1,NA,1,2100,2100,2100,18,target
123_pomper_saffran_2016_43,13,123,pomper_saffran_2016,43,brown,brown,target,82,19,0.8118811881188119,0.5188679245283019,2,NA,0,NA,2,1366.6666666666667,1566.6666666666667,1566.6666666666667,18,target
123_pomper_saffran_2016_43,14,123,pomper_saffran_2016,43,blue,blue,target,63,35,0.6428571428571429,NA,1,NA,0,NA,1,2100,2100,2100,18,target
123_pomper_saffran_2016_43,16,123,pomper_saffran_2016,43,black,black,target,106,0,1,NA,1,NA,1,NA,0,3533.3333333333335,3533.3333333333335,3533.3333333333335,18,target
124_pomper_saffran_2016_42,4,124,pomper_saffran_2016,42,orange,orange,target,48,42,0.5333333333333333,NA,2,NA,0,NA,3,766.6666666666667,533.3333333333334,1000.0000000000001,17,target
124_pomper_saffran_2016_42,7,124,pomper_saffran_2016,42,green,green,target,93,0,1,NA,2,NA,1,NA,0,1550,1600,1600,17,target
125_pomper_saffran_2016_43,9,125,pomper_saffran_2016,43,white,white,target,106,0,1,NA,1,NA,1,NA,0,3533.3333333333335,3533.3333333333335,3533.3333333333335,18,target
125_pomper_saffran_2016_43,11,125,pomper_saffran_2016,43,red,red,target,106,0,1,NA,1,NA,1,NA,0,3533.3333333333335,3533.3333333333335,3533.3333333333335,18,target
125_pomper_saffran_2016_43,15,125,pomper_saffran_2016,43,black,black,target,106,0,1,NA,1,NA,1,NA,0,3533.3333333333335,3533.3333333333335,3533.3333333333335,18,target
126_pomper_saffran_2016_44,3,126,pomper_saffran_2016,44,green,green,target,85,13,0.8673469387755102,NA,2,NA,0,NA,2,1416.6666666666667,1300,1533.3333333333335,19,target
126_pomper_saffran_2016_44,5,126,pomper_saffran_2016,44,brown,brown,target,89,12,0.8811881188118812,NA,1,NA,0,NA,1,2600,366.6666666666667,2600,19,target
126_pomper_saffran_2016_44,6,126,pomper_saffran_2016,44,blue,blue,target,106,0,1,NA,1,NA,1,NA,0,3533.3333333333335,3533.3333333333335,3533.3333333333335,19,target
126_pomper_saffran_2016_44,8,126,pomper_saffran_2016,44,black,black,target,64,39,0.6213592233009708,NA,1,NA,1,NA,1,2133.3333333333335,2133.3333333333335,2133.3333333333335,19,target
127_pomper_saffran_2016_41,10,127,pomper_saffran_2016,41,red,red,target,74,26,0.74,NA,2,NA,0,NA,2,1233.3333333333335,533.3333333333334,1933.3333333333335,16,target
128_pomper_saffran_2016_47,9,128,pomper_saffran_2016,47,brown,brown,target,66,33,0.6666666666666666,0.17924528301886788,2,NA,0,NA,2,1100,666.6666666666667,1533.3333333333335,22,target
128_pomper_saffran_2016_47,10,128,pomper_saffran_2016,47,yellow,yellow,target,74,25,0.7474747474747475,NA,2,NA,0,NA,2,1233.3333333333335,1466.6666666666667,1466.6666666666667,22,target
128_pomper_saffran_2016_47,12,128,pomper_saffran_2016,47,orange,orange,target,106,0,1,NA,1,NA,1,NA,0,3533.3333333333335,3533.3333333333335,3533.3333333333335,22,target
128_pomper_saffran_2016_47,13,128,pomper_saffran_2016,47,white,white,target,53,47,0.53,0.18867924528301888,1,NA,0,NA,1,1766.6666666666667,1766.6666666666667,1766.6666666666667,22,target
128_pomper_saffran_2016_47,15,128,pomper_saffran_2016,47,yellow,yellow,target,76,24,0.76,NA,1,NA,0,NA,1,2300,233.33333333333334,2300,22,target
129_pomper_saffran_2016_45,3,129,pomper_saffran_2016,45,yellow,yellow,target,73,25,0.7448979591836735,NA,1,NA,0,NA,1,2300,2300,2300,20,target
129_pomper_saffran_2016_45,4,129,pomper_saffran_2016,45,white,white,target,78,0,1,0.48113207547169806,2,NA,1,NA,0,1300,1633.3333333333335,1633.3333333333335,20,target
129_pomper_saffran_2016_45,7,129,pomper_saffran_2016,45,orange,orange,target,59,0,1,NA,1,NA,1,NA,0,1966.6666666666667,1966.6666666666667,1966.6666666666667,20,target
129_pomper_saffran_2016_45,8,129,pomper_saffran_2016,45,brown,brown,target,39,27,0.5909090909090909,0.36792452830188677,1,NA,0,NA,1,1300,1300,1300,20,target
130_pomper_saffran_2016_44,12,130,pomper_saffran_2016,44,brown,brown,target,106,0,1,NA,1,NA,1,NA,0,3533.3333333333335,3533.3333333333335,3533.3333333333335,19,target
130_pomper_saffran_2016_44,13,130,pomper_saffran_2016,44,yellow,yellow,target,106,0,1,NA,1,NA,1,NA,0,3533.3333333333335,3533.3333333333335,3533.3333333333335,19,target
130_pomper_saffran_2016_44,14,130,pomper_saffran_2016,44,green,green,target,75,27,0.7352941176470589,NA,2,NA,0,NA,2,1250,966.6666666666667,1533.3333333333335,19,target
130_pomper_saffran_2016_44,16,130,pomper_saffran_2016,44,blue,blue,target,105,0,1,NA,1,NA,1,NA,0,3500.0000000000005,3500.0000000000005,3500.0000000000005,19,target
131_pomper_saffran_2016_42,2,131,pomper_saffran_2016,42,green,green,target,106,0,1,NA,1,NA,1,NA,0,3533.3333333333335,3533.3333333333335,3533.3333333333335,17,target
131_pomper_saffran_2016_42,3,131,pomper_saffran_2016,42,black,black,target,106,0,1,1,1,NA,1,NA,0,3533.3333333333335,3533.3333333333335,3533.3333333333335,17,target
131_pomper_saffran_2016_42,6,131,pomper_saffran_2016,42,yellow,yellow,target,106,0,1,1,1,NA,1,NA,0,3533.3333333333335,3533.3333333333335,3533.3333333333335,17,target
131_pomper_saffran_2016_42,8,131,pomper_saffran_2016,42,white,white,target,95,7,0.9313725490196079,NA,1,NA,1,NA,0,3166.666666666667,3166.666666666667,3166.666666666667,17,target
132_pomper_saffran_2016_41,10,132,pomper_saffran_2016,41,orange,orange,target,106,0,1,NA,1,NA,1,NA,0,3533.3333333333335,3533.3333333333335,3533.3333333333335,16,target
132_pomper_saffran_2016_41,11,132,pomper_saffran_2016,41,yellow,yellow,target,106,0,1,NA,1,NA,1,NA,0,3533.3333333333335,3533.3333333333335,3533.3333333333335,16,target
132_pomper_saffran_2016_41,12,132,pomper_saffran_2016,41,white,white,target,75,25,0.75,NA,1,NA,0,NA,1,2366.666666666667,2366.666666666667,2366.666666666667,16,target
133_pomper_saffran_2016_45,4,133,pomper_saffran_2016,45,brown,brown,target,84,18,0.8235294117647058,NA,1,NA,0,NA,1,2566.666666666667,233.33333333333334,2566.666666666667,20,target
133_pomper_saffran_2016_45,6,133,pomper_saffran_2016,45,green,green,target,78,18,0.8125,NA,1,NA,1,NA,1,2400,2400,2400,20,target
134_pomper_saffran_2016_44,13,134,pomper_saffran_2016,44,red,red,target,55,49,0.5288461538461539,NA,1,NA,0,NA,1,1833.3333333333335,1833.3333333333335,1833.3333333333335,19,target
134_pomper_saffran_2016_44,16,134,pomper_saffran_2016,44,brown,brown,target,67,32,0.6767676767676768,NA,2,NA,0,NA,2,1116.6666666666667,1233.3333333333335,1233.3333333333335,19,target
135_pomper_saffran_2016_46,1,135,pomper_saffran_2016,46,red,red,target,79,0,1,NA,2,NA,1,NA,0,1316.6666666666667,2133.3333333333335,2133.3333333333335,21,target
135_pomper_saffran_2016_46,4,135,pomper_saffran_2016,46,white,white,target,55,0,1,0.169811320754717,1,NA,1,NA,0,1500,1500,1500,21,target
135_pomper_saffran_2016_46,7,135,pomper_saffran_2016,46,brown,brown,target,61,37,0.6224489795918368,0.5754716981132075,2,NA,0,NA,2,1016.6666666666667,800,1233.3333333333335,21,target
136_pomper_saffran_2016_42,1,136,pomper_saffran_2016,42,red,red,target,82,16,0.8367346938775511,NA,2,NA,0,NA,2,1366.6666666666667,800,1933.3333333333335,17,target
136_pomper_saffran_2016_42,2,136,pomper_saffran_2016,42,orange,orange,target,92,10,0.9019607843137255,NA,1,NA,1,NA,0,3066.666666666667,3066.666666666667,3066.666666666667,17,target
136_pomper_saffran_2016_42,3,136,pomper_saffran_2016,42,yellow,yellow,target,62,38,0.62,0.36792452830188677,2,NA,0,NA,2,1033.3333333333333,1600,1600,17,target
136_pomper_saffran_2016_42,5,136,pomper_saffran_2016,42,black,black,target,70,23,0.7526881720430108,0.3018867924528302,2,NA,0,NA,2,1166.6666666666667,1200,1200,17,target
137_pomper_saffran_2016_45,9,137,pomper_saffran_2016,45,blue,blue,target,106,0,1,NA,1,NA,1,NA,0,3533.3333333333335,3533.3333333333335,3533.3333333333335,20,target
137_pomper_saffran_2016_45,14,137,pomper_saffran_2016,45,yellow,yellow,target,53,46,0.5353535353535354,NA,1,NA,1,NA,1,1766.6666666666667,1766.6666666666667,1766.6666666666667,20,target
137_pomper_saffran_2016_45,15,137,pomper_saffran_2016,45,blue,blue,target,106,0,1,NA,1,NA,1,NA,0,3533.3333333333335,3533.3333333333335,3533.3333333333335,20,target
138_pomper_saffran_2016_43,3,138,pomper_saffran_2016,43,red,red,target,91,0,1,NA,1,NA,1,NA,0,3033.3333333333335,3033.3333333333335,3033.3333333333335,18,target
138_pomper_saffran_2016_43,4,138,pomper_saffran_2016,43,blue,blue,target,40,62,0.39215686274509803,NA,1,NA,0,NA,1,1333.3333333333335,1333.3333333333335,1333.3333333333335,18,target
138_pomper_saffran_2016_43,7,138,pomper_saffran_2016,43,black,black,target,67,34,0.6633663366336634,NA,1,NA,1,NA,1,2233.3333333333335,2233.3333333333335,2233.3333333333335,18,target
139_pomper_saffran_2016_45,10,139,pomper_saffran_2016,45,brown,brown,target,61,35,0.6354166666666666,NA,2,NA,0,NA,2,866.6666666666667,1100,1100,20,target
139_pomper_saffran_2016_45,12,139,pomper_saffran_2016,45,orange,orange,target,0,106,0,NA,NA,NA,0,NA,0,NA,NA,NA,20,target
139_pomper_saffran_2016_45,15,139,pomper_saffran_2016,45,green,green,target,106,0,1,NA,1,NA,1,NA,0,3533.3333333333335,3533.3333333333335,3533.3333333333335,20,target
140_pomper_saffran_2016_46,8,140,pomper_saffran_2016,46,red,red,target,92,13,0.8761904761904762,NA,1,NA,1,NA,1,3066.666666666667,3066.666666666667,3066.666666666667,21,target
141_pomper_saffran_2016_47,10,141,pomper_saffran_2016,47,green,green,target,62,39,0.6138613861386139,NA,2,NA,0,NA,2,1033.3333333333335,1033.3333333333335,1033.3333333333335,22,target
141_pomper_saffran_2016_47,11,141,pomper_saffran_2016,47,black,black,target,48,55,0.46601941747572817,NA,1,NA,0,NA,1,1600,1600,1600,22,target
141_pomper_saffran_2016_47,13,141,pomper_saffran_2016,47,green,green,target,71,26,0.7319587628865979,NA,1,NA,0,NA,1,2366.666666666667,2366.666666666667,2366.666666666667,22,target
142_pomper_saffran_2016_46,3,142,pomper_saffran_2016,46,red,red,target,106,0,1,0.6603773584905661,1,NA,1,NA,0,3533.3333333333335,3533.3333333333335,3533.3333333333335,21,target
142_pomper_saffran_2016_46,8,142,pomper_saffran_2016,46,green,green,target,66,36,0.6470588235294118,0.6226415094339622,2,NA,0,NA,2,1100,1166.6666666666667,1166.6666666666667,21,target
143_pomper_saffran_2016_45,10,143,pomper_saffran_2016,45,brown,brown,target,106,0,1,NA,1,NA,1,NA,0,3533.3333333333335,3533.3333333333335,3533.3333333333335,20,target
143_pomper_saffran_2016_45,16,143,pomper_saffran_2016,45,yellow,yellow,target,106,0,1,NA,1,NA,1,NA,0,3533.3333333333335,3533.3333333333335,3533.3333333333335,20,target
144_pomper_saffran_2016_46,1,144,pomper_saffran_2016,46,yellow,yellow,target,106,0,1,NA,1,NA,1,NA,0,3533.3333333333335,3533.3333333333335,3533.3333333333335,21,target
145_pomper_saffran_2016_47,9,145,pomper_saffran_2016,47,black,black,target,83,13,0.8645833333333334,NA,2,NA,1,NA,2,1383.3333333333333,2300,2300,22,target
145_pomper_saffran_2016_47,10,145,pomper_saffran_2016,47,white,white,target,79,0,1,0.5660377358490566,2,NA,1,NA,0,1316.6666666666667,2133.3333333333335,2133.3333333333335,22,target
145_pomper_saffran_2016_47,11,145,pomper_saffran_2016,47,green,green,target,75,5,0.9375,NA,2,NA,0,NA,0,1250,1166.6666666666667,1333.3333333333335,22,target
145_pomper_saffran_2016_47,13,145,pomper_saffran_2016,47,brown,brown,target,66,19,0.7764705882352941,0.6226415094339622,2,NA,0,NA,1,1100,1500,1500,22,target
146_pomper_saffran_2016_43,11,146,pomper_saffran_2016,43,green,green,target,67,11,0.8589743589743589,0.6320754716981132,1,NA,1,NA,0,2133.3333333333335,2133.3333333333335,2133.3333333333335,18,target
146_pomper_saffran_2016_43,12,146,pomper_saffran_2016,43,blue,blue,target,97,0,1,NA,1,NA,1,NA,0,3233.3333333333335,3233.3333333333335,3233.3333333333335,18,target
146_pomper_saffran_2016_43,13,146,pomper_saffran_2016,43,brown,brown,target,81,23,0.7788461538461539,NA,1,NA,1,NA,1,2700,2700,2700,18,target
146_pomper_saffran_2016_43,15,146,pomper_saffran_2016,43,red,red,target,84,0,1,0.6886792452830189,2,NA,1,NA,0,1400,1233.3333333333335,1566.6666666666667,18,target
147_pomper_saffran_2016_46,14,147,pomper_saffran_2016,46,blue,blue,target,106,0,1,NA,1,NA,1,NA,0,3533.3333333333335,3533.3333333333335,3533.3333333333335,21,target
148_pomper_saffran_2016_44,1,148,pomper_saffran_2016,44,yellow,yellow,target,28,40,0.4117647058823529,NA,1,NA,0,NA,1,633.3333333333334,300,633.3333333333334,19,target
148_pomper_saffran_2016_44,4,148,pomper_saffran_2016,44,orange,orange,target,44,55,0.4444444444444444,NA,2,NA,0,NA,2,733.3333333333334,966.6666666666667,966.6666666666667,19,target
148_pomper_saffran_2016_44,6,148,pomper_saffran_2016,44,orange,orange,target,106,0,1,NA,1,NA,1,NA,0,3533.3333333333335,3533.3333333333335,3533.3333333333335,19,target
148_pomper_saffran_2016_44,8,148,pomper_saffran_2016,44,yellow,yellow,target,106,0,1,NA,1,NA,1,NA,0,3533.3333333333335,3533.3333333333335,3533.3333333333335,19,target
149_pomper_saffran_2016_44,10,149,pomper_saffran_2016,44,yellow,yellow,target,106,0,1,NA,1,NA,1,NA,0,3533.3333333333335,3533.3333333333335,3533.3333333333335,19,target
149_pomper_saffran_2016_44,11,149,pomper_saffran_2016,44,green,green,target,106,0,1,1,1,NA,1,NA,0,3533.3333333333335,3533.3333333333335,3533.3333333333335,19,target
149_pomper_saffran_2016_44,13,149,pomper_saffran_2016,44,white,white,target,69,27,0.71875,NA,1,NA,0,NA,1,2300,2300,2300,19,target
149_pomper_saffran_2016_44,16,149,pomper_saffran_2016,44,red,red,target,106,0,1,1,1,NA,1,NA,0,3533.3333333333335,3533.3333333333335,3533.3333333333335,19,target
150_pomper_saffran_2016_43,11,150,pomper_saffran_2016,43,red,red,target,106,0,1,0.8018867924528301,1,NA,1,NA,0,3533.3333333333335,3533.3333333333335,3533.3333333333335,18,target
150_pomper_saffran_2016_43,14,150,pomper_saffran_2016,43,blue,blue,target,106,0,1,NA,1,NA,1,NA,0,3533.3333333333335,3533.3333333333335,3533.3333333333335,18,target
150_pomper_saffran_2016_43,15,150,pomper_saffran_2016,43,black,black,target,106,0,1,NA,1,NA,1,NA,0,3533.3333333333335,3533.3333333333335,3533.3333333333335,18,target
150_pomper_saffran_2016_43,16,150,pomper_saffran_2016,43,green,green,target,76,21,0.7835051546391752,0.71698113207547165,2,NA,0,NA,2,1266.6666666666667,1500,1500,18,target
151_pomper_saffran_2016_45,1,151,pomper_saffran_2016,45,brown,brown,target,52,43,0.5473684210526316,NA,2,NA,0,NA,3,683.3333333333334,433.33333333333337,933.3333333333334,20,target
151_pomper_saffran_2016_45,3,151,pomper_saffran_2016,45,green,green,target,69,24,0.7419354838709677,0.2264150943396226,1,NA,0,NA,1,1933.3333333333335,366.6666666666667,1933.3333333333335,20,target
151_pomper_saffran_2016_45,4,151,pomper_saffran_2016,45,orange,orange,target,55,40,0.5789473684210527,NA,2,NA,0,NA,2,866.6666666666667,1000.0000000000001,1000.0000000000001,20,target
151_pomper_saffran_2016_45,6,151,pomper_saffran_2016,45,orange,orange,target,52,48,0.52,NA,2,NA,0,NA,2,866.6666666666667,433.33333333333337,1300,20,target
151_pomper_saffran_2016_45,8,151,pomper_saffran_2016,45,red,red,target,58,45,0.5631067961165048,0.32075471698113206,2,NA,0,NA,2,966.6666666666667,1366.6666666666667,1366.6666666666667,20,target
152_pomper_saffran_2016_46,4,152,pomper_saffran_2016,46,blue,blue,target,48,16,0.75,NA,1,NA,0,NA,1,1366.6666666666667,233.33333333333334,1366.6666666666667,21,target
152_pomper_saffran_2016_46,7,152,pomper_saffran_2016,46,red,red,target,31,72,0.30097087378640774,NA,1,NA,0,NA,2,766.6666666666667,266.6666666666667,766.6666666666667,21,target
153_pomper_saffran_2016_45,2,153,pomper_saffran_2016,45,white,white,target,106,0,1,0.4811320754716981,1,NA,1,NA,0,3533.3333333333335,3533.3333333333335,3533.3333333333335,20,target
153_pomper_saffran_2016_45,5,153,pomper_saffran_2016,45,brown,brown,target,45,55,0.45,0.42452830188679247,1,NA,0,NA,2,1500,1500,1500,20,target
153_pomper_saffran_2016_45,6,153,pomper_saffran_2016,45,blue,blue,target,37,62,0.37373737373737376,NA,1,NA,0,NA,1,1133.3333333333335,1133.3333333333335,1133.3333333333335,20,target
153_pomper_saffran_2016_45,8,153,pomper_saffran_2016,45,black,black,target,106,0,1,NA,1,NA,1,NA,0,3533.3333333333335,3533.3333333333335,3533.3333333333335,20,target
154_pomper_saffran_2016_41,10,154,pomper_saffran_2016,41,yellow,yellow,target,91,13,0.875,NA,1,NA,1,NA,1,3033.3333333333335,3033.3333333333335,3033.3333333333335,16,target
154_pomper_saffran_2016_41,11,154,pomper_saffran_2016,41,green,green,target,76,28,0.7307692307692307,0.49999999999999994,1,NA,0,NA,1,2433.3333333333335,2433.3333333333335,2433.3333333333335,16,target
154_pomper_saffran_2016_41,14,154,pomper_saffran_2016,41,orange,orange,target,82,18,0.82,NA,1,NA,0,NA,1,2733.3333333333335,2733.3333333333335,2733.3333333333335,16,target
154_pomper_saffran_2016_41,15,154,pomper_saffran_2016,41,yellow,yellow,target,106,0,1,NA,1,NA,1,NA,0,3533.3333333333335,3533.3333333333335,3533.3333333333335,16,target
154_pomper_saffran_2016_41,16,154,pomper_saffran_2016,41,red,red,target,79,23,0.7745098039215687,0.48113207547169806,1,NA,0,NA,1,2600,2600,2600,16,target
155_pomper_saffran_2016_44,1,155,pomper_saffran_2016,44,orange,orange,target,106,0,1,NA,1,NA,1,NA,0,3533.3333333333335,3533.3333333333335,3533.3333333333335,19,target
155_pomper_saffran_2016_44,2,155,pomper_saffran_2016,44,red,red,target,106,0,1,NA,1,NA,1,NA,0,3533.3333333333335,3533.3333333333335,3533.3333333333335,19,target
155_pomper_saffran_2016_44,4,155,pomper_saffran_2016,44,white,white,target,60,38,0.6122448979591837,NA,1,NA,1,NA,1,2000.0000000000002,2000.0000000000002,2000.0000000000002,19,target
155_pomper_saffran_2016_44,5,155,pomper_saffran_2016,44,red,red,target,106,0,1,NA,1,NA,1,NA,0,3533.3333333333335,3533.3333333333335,3533.3333333333335,19,target
156_pomper_saffran_2016_46,11,156,pomper_saffran_2016,46,black,black,target,78,0,1,NA,2,NA,1,NA,0,1300,1766.6666666666667,1766.6666666666667,21,target
156_pomper_saffran_2016_46,15,156,pomper_saffran_2016,46,white,white,target,77,26,0.7475728155339806,NA,1,NA,1,NA,1,2566.666666666667,2566.666666666667,2566.666666666667,21,target
156_pomper_saffran_2016_46,16,156,pomper_saffran_2016,46,blue,blue,target,62,36,0.6326530612244898,NA,2,NA,0,NA,2,1033.3333333333335,566.6666666666667,1500,21,target
157_pomper_saffran_2016_46,2,157,pomper_saffran_2016,46,green,green,target,106,0,1,NA,1,NA,1,NA,0,3533.3333333333335,3533.3333333333335,3533.3333333333335,21,target
157_pomper_saffran_2016_46,3,157,pomper_saffran_2016,46,black,black,target,106,0,1,NA,1,NA,1,NA,0,3533.3333333333335,3533.3333333333335,3533.3333333333335,21,target
157_pomper_saffran_2016_46,7,157,pomper_saffran_2016,46,blue,blue,target,70,32,0.6862745098039216,NA,2,NA,0,NA,2,1166.6666666666667,1466.6666666666667,1466.6666666666667,21,target
157_pomper_saffran_2016_46,8,157,pomper_saffran_2016,46,white,white,target,74,24,0.7551020408163265,NA,2,NA,0,NA,2,1233.3333333333335,1166.6666666666667,1300,21,target
158_pomper_saffran_2016_47,1,158,pomper_saffran_2016,47,blue,blue,target,36,67,0.34951456310679613,NA,1,NA,0,NA,1,1200,1200,1200,22,target
158_pomper_saffran_2016_47,3,158,pomper_saffran_2016,47,black,black,target,76,0,1,NA,1,NA,1,NA,0,2233.3333333333335,2233.3333333333335,2233.3333333333335,22,target
158_pomper_saffran_2016_47,7,158,pomper_saffran_2016,47,blue,blue,target,71,8,0.8987341772151899,NA,1,NA,1,NA,0,2366.666666666667,2366.666666666667,2366.666666666667,22,target
159_pomper_saffran_2016_47,11,159,pomper_saffran_2016,47,yellow,yellow,target,106,0,1,0.6981132075471699,1,NA,1,NA,0,3533.3333333333335,3533.3333333333335,3533.3333333333335,22,target
159_pomper_saffran_2016_47,12,159,pomper_saffran_2016,47,white,white,target,24,40,0.375,NA,1,NA,0,NA,1,633.3333333333334,633.3333333333334,633.3333333333334,22,target
159_pomper_saffran_2016_47,13,159,pomper_saffran_2016,47,black,black,target,66,32,0.673469387755102,0.6226415094339622,1,NA,0,NA,1,1966.6666666666667,233.33333333333334,1966.6666666666667,22,target
160_pomper_saffran_2016_43,1,160,pomper_saffran_2016,43,green,green,target,76,26,0.7450980392156863,NA,1,NA,0,NA,1,2433.3333333333335,2433.3333333333335,2433.3333333333335,18,target
160_pomper_saffran_2016_43,2,160,pomper_saffran_2016,43,blue,blue,target,24,73,0.24742268041237114,NA,1,NA,0,NA,1,666.6666666666667,666.6666666666667,666.6666666666667,18,target
160_pomper_saffran_2016_43,5,160,pomper_saffran_2016,43,yellow,yellow,target,106,0,1,NA,1,NA,1,NA,0,3533.3333333333335,3533.3333333333335,3533.3333333333335,18,target
160_pomper_saffran_2016_43,7,160,pomper_saffran_2016,43,white,white,target,106,0,1,NA,1,NA,1,NA,0,3533.3333333333335,3533.3333333333335,3533.3333333333335,18,target
161_pomper_saffran_2016_44,1,161,pomper_saffran_2016,44,orange,orange,target,39,33,0.5416666666666666,NA,1,NA,1,NA,1,1300,1300,1300,19,target
161_pomper_saffran_2016_44,2,161,pomper_saffran_2016,44,red,red,target,77,0,1,NA,1,NA,1,NA,0,2566.666666666667,2566.666666666667,2566.666666666667,19,target
161_pomper_saffran_2016_44,7,161,pomper_saffran_2016,44,orange,orange,target,23,71,0.24468085106382978,NA,1,NA,0,NA,1,533.3333333333334,233.33333333333334,533.3333333333334,19,target
162_pomper_saffran_2016_45,10,162,pomper_saffran_2016,45,blue,blue,target,63,34,0.6494845360824743,NA,2,NA,0,NA,2,1050,1200,1200,20,target
162_pomper_saffran_2016_45,12,162,pomper_saffran_2016,45,brown,brown,target,97,6,0.941747572815534,NA,1,NA,1,NA,0,3233.3333333333335,3233.3333333333335,3233.3333333333335,20,target
163_pomper_saffran_2016_46,1,163,pomper_saffran_2016,46,blue,blue,target,75,28,0.7281553398058253,NA,2,NA,0,NA,2,1250,1233.3333333333335,1266.6666666666667,21,target
163_pomper_saffran_2016_46,2,163,pomper_saffran_2016,46,green,green,target,91,9,0.91,NA,1,NA,0,NA,0,2766.666666666667,266.6666666666667,2766.666666666667,21,target
163_pomper_saffran_2016_46,4,163,pomper_saffran_2016,46,brown,brown,target,66,24,0.7333333333333333,0.6226415094339622,1,NA,0,NA,1,1966.6666666666667,233.33333333333334,1966.6666666666667,21,target
163_pomper_saffran_2016_46,6,163,pomper_saffran_2016,46,yellow,yellow,target,106,0,1,NA,1,NA,1,NA,0,3533.3333333333335,3533.3333333333335,3533.3333333333335,21,target
163_pomper_saffran_2016_46,7,163,pomper_saffran_2016,46,blue,blue,target,60,44,0.5769230769230769,NA,2,NA,0,NA,2,1000.0000000000001,1033.3333333333335,1033.3333333333335,21,target
163_pomper_saffran_2016_46,8,163,pomper_saffran_2016,46,white,white,target,106,0,1,0.7735849056603774,1,NA,1,NA,0,3533.3333333333335,3533.3333333333335,3533.3333333333335,21,target
165_pomper_saffran_2016_46,4,165,pomper_saffran_2016,46,blue,blue,target,59,32,0.6483516483516484,NA,2,NA,0,NA,2,883.3333333333334,933.3333333333334,933.3333333333334,21,target
165_pomper_saffran_2016_46,5,165,pomper_saffran_2016,46,brown,brown,target,63,0,1,NA,1,NA,1,NA,0,2100,2100,2100,21,target
165_pomper_saffran_2016_46,6,165,pomper_saffran_2016,46,blue,blue,target,57,23,0.7125,NA,1,NA,1,NA,1,1900.0000000000002,1900.0000000000002,1900.0000000000002,21,target
166_pomper_saffran_2016_47,9,166,pomper_saffran_2016,47,orange,orange,target,106,0,1,NA,1,NA,1,NA,0,3533.3333333333335,3533.3333333333335,3533.3333333333335,22,target
166_pomper_saffran_2016_47,12,166,pomper_saffran_2016,47,white,white,target,100,2,0.9803921568627451,NA,1,NA,1,NA,0,3333.3333333333335,3333.3333333333335,3333.3333333333335,22,target
166_pomper_saffran_2016_47,15,166,pomper_saffran_2016,47,orange,orange,target,95,0,1,NA,2,NA,1,NA,0,1583.3333333333335,2433.3333333333335,2433.3333333333335,22,target
167_pomper_saffran_2016_46,2,167,pomper_saffran_2016,46,blue,blue,target,106,0,1,NA,1,NA,1,NA,0,3533.3333333333335,3533.3333333333335,3533.3333333333335,21,target
167_pomper_saffran_2016_46,3,167,pomper_saffran_2016,46,black,black,target,106,0,1,NA,1,NA,1,NA,0,3533.3333333333335,3533.3333333333335,3533.3333333333335,21,target
167_pomper_saffran_2016_46,6,167,pomper_saffran_2016,46,green,green,target,97,8,0.9238095238095239,NA,1,NA,0,NA,0,3233.3333333333335,3233.3333333333335,3233.3333333333335,21,target
167_pomper_saffran_2016_46,7,167,pomper_saffran_2016,46,white,white,target,93,8,0.9207920792079208,NA,1,NA,0,NA,0,3100,3100,3100,21,target
439_swingley_aslin_2002_15,5,439,swingley_aslin_2002,15,tog,tog,target,60,45,0.5714285714285714,NA,1,NA,1,NA,1,2000.0000000000002,2000.0000000000002,2000.0000000000002,-10,target
439_swingley_aslin_2002_15,9,439,swingley_aslin_2002,15,cur,cur,target,44,58,0.43137254901960786,NA,2,NA,0,NA,2,733.3333333333334,966.6666666666667,966.6666666666667,-10,target
439_swingley_aslin_2002_15,10,439,swingley_aslin_2002,15,vaby,vaby,target,106,0,1,NA,1,NA,1,NA,0,3533.3333333333335,3533.3333333333335,3533.3333333333335,-10,target
439_swingley_aslin_2002_15,18,439,swingley_aslin_2002,15,vaby,vaby,target,106,0,1,NA,1,NA,1,NA,0,3533.3333333333335,3533.3333333333335,3533.3333333333335,-10,target
439_swingley_aslin_2002_15,23,439,swingley_aslin_2002,15,cur,cur,target,106,0,1,NA,1,NA,1,NA,0,3533.3333333333335,3533.3333333333335,3533.3333333333335,-10,target
439_swingley_aslin_2002_15,25,439,swingley_aslin_2002,15,pity,pity,target,86,16,0.8431372549019608,NA,2,NA,0,NA,2,1433.3333333333335,500.00000000000006,2366.666666666667,-10,target
440_swingley_aslin_2002_15,6,440,swingley_aslin_2002,15,tog,tog,target,83,0,1,NA,2,NA,1,NA,0,1383.3333333333335,1200,1566.6666666666667,-10,target
440_swingley_aslin_2002_15,9,440,swingley_aslin_2002,15,gall,gall,target,7,93,0.07,NA,NA,NA,0,NA,0,NA,233.33333333333334,NA,-10,target
441_swingley_aslin_2002_15,16,441,swingley_aslin_2002,15,gall,gall,target,51,54,0.4857142857142857,NA,1,NA,0,NA,1,1700.0000000000002,1700.0000000000002,1700.0000000000002,-10,target
441_swingley_aslin_2002_15,17,441,swingley_aslin_2002,15,vaby,vaby,target,106,0,1,NA,1,NA,1,NA,0,3533.3333333333335,3533.3333333333335,3533.3333333333335,-10,target
442_swingley_aslin_2002_15,1,442,swingley_aslin_2002,15,pity,pity,target,57,47,0.5480769230769231,NA,1,NA,0,NA,1,1733.3333333333335,1733.3333333333335,1733.3333333333335,-10,target
442_swingley_aslin_2002_15,8,442,swingley_aslin_2002,15,vaby,vaby,target,73,31,0.7019230769230769,NA,2,NA,0,NA,2,1216.6666666666667,1600,1600,-10,target
442_swingley_aslin_2002_15,12,442,swingley_aslin_2002,15,opple,opple,target,85,20,0.8095238095238095,NA,2,NA,0,NA,2,1416.6666666666667,1066.6666666666667,1766.6666666666667,-10,target
442_swingley_aslin_2002_15,17,442,swingley_aslin_2002,15,vaby,vaby,target,62,42,0.5961538461538461,NA,1,NA,0,NA,1,1833.3333333333335,233.33333333333334,1833.3333333333335,-10,target
443_swingley_aslin_2002_16,50,443,swingley_aslin_2002,16,mog,mog,target,12,93,0.11428571428571428,NA,1,NA,0,NA,1,400,400,400,-9,target
443_swingley_aslin_2002_16,51,443,swingley_aslin_2002,16,kier,kier,target,31,72,0.30097087378640774,NA,2,NA,0,NA,2,516.6666666666667,566.6666666666667,566.6666666666667,-9,target
443_swingley_aslin_2002_16,52,443,swingley_aslin_2002,16,raby,raby,target,61,41,0.5980392156862745,NA,1,NA,1,NA,1,2033.3333333333335,2033.3333333333335,2033.3333333333335,-9,target
443_swingley_aslin_2002_16,54,443,swingley_aslin_2002,16,opal,opal,target,93,10,0.9029126213592233,NA,2,NA,0,NA,0,1550,1633.3333333333335,1633.3333333333335,-9,target
443_swingley_aslin_2002_16,55,443,swingley_aslin_2002,16,shawl,shawl,target,76,28,0.7307692307692307,NA,2,NA,0,NA,2,1266.6666666666667,633.3333333333334,1900.0000000000002,-9,target
443_swingley_aslin_2002_16,56,443,swingley_aslin_2002,16,raby,raby,target,60,44,0.5769230769230769,NA,1,NA,0,NA,2,2000.0000000000002,2000.0000000000002,2000.0000000000002,-9,target
443_swingley_aslin_2002_16,59,443,swingley_aslin_2002,16,yitty,yitty,target,91,13,0.875,NA,1,NA,1,NA,1,3033.3333333333335,3033.3333333333335,3033.3333333333335,-9,target
444_swingley_aslin_2002_15,49,444,swingley_aslin_2002,15,yitty,yitty,target,95,11,0.8962264150943396,NA,2,NA,0,NA,0,1583.3333333333335,1633.3333333333335,1633.3333333333335,-10,target
445_swingley_aslin_2002_15,34,445,swingley_aslin_2002,15,yitty,yitty,target,73,22,0.7684210526315789,NA,1,NA,1,NA,1,2433.3333333333335,2433.3333333333335,2433.3333333333335,-10,target
445_swingley_aslin_2002_15,36,445,swingley_aslin_2002,15,mog,mog,target,106,0,1,NA,1,NA,1,NA,0,3533.3333333333335,3533.3333333333335,3533.3333333333335,-10,target
445_swingley_aslin_2002_15,40,445,swingley_aslin_2002,15,shawl,shawl,target,75,24,0.7575757575757576,NA,2,NA,0,NA,2,1150,1433.3333333333335,1433.3333333333335,-10,target
445_swingley_aslin_2002_15,41,445,swingley_aslin_2002,15,raby,raby,target,86,17,0.8349514563106796,NA,2,NA,0,NA,2,1433.3333333333335,500.00000000000006,2366.666666666667,-10,target
445_swingley_aslin_2002_15,43,445,swingley_aslin_2002,15,mog,mog,target,72,33,0.6857142857142857,NA,1,NA,1,NA,1,2400,2400,2400,-10,target
445_swingley_aslin_2002_15,44,445,swingley_aslin_2002,15,yitty,yitty,target,106,0,1,NA,1,NA,1,NA,0,3533.3333333333335,3533.3333333333335,3533.3333333333335,-10,target
446_swingley_aslin_2002_14,34,446,swingley_aslin_2002,14,yitty,yitty,target,68,34,0.6666666666666666,NA,2,NA,0,NA,2,1133.3333333333335,1500,1500,-11,target
446_swingley_aslin_2002_14,35,446,swingley_aslin_2002,14,kier,kier,target,68,37,0.6476190476190476,NA,1,NA,1,NA,1,2266.666666666667,2266.666666666667,2266.666666666667,-11,target
446_swingley_aslin_2002_14,37,446,swingley_aslin_2002,14,raby,raby,target,106,0,1,NA,1,NA,1,NA,0,3533.3333333333335,3533.3333333333335,3533.3333333333335,-11,target
446_swingley_aslin_2002_14,38,446,swingley_aslin_2002,14,shawl,shawl,target,92,13,0.8761904761904762,NA,1,NA,1,NA,1,3066.666666666667,3066.666666666667,3066.666666666667,-11,target
446_swingley_aslin_2002_14,39,446,swingley_aslin_2002,14,opal,opal,target,100,0,1,NA,2,NA,1,NA,0,1666.6666666666667,1966.6666666666667,1966.6666666666667,-11,target
446_swingley_aslin_2002_14,42,446,swingley_aslin_2002,14,kier,kier,target,106,0,1,NA,1,NA,1,NA,0,3533.3333333333335,3533.3333333333335,3533.3333333333335,-11,target
446_swingley_aslin_2002_14,43,446,swingley_aslin_2002,14,mog,mog,target,106,0,1,NA,1,NA,1,NA,0,3533.3333333333335,3533.3333333333335,3533.3333333333335,-11,target
447_swingley_aslin_2002_15,42,447,swingley_aslin_2002,15,yitty,yitty,target,33,71,0.3173076923076923,NA,1,NA,0,NA,1,966.6666666666667,966.6666666666667,966.6666666666667,-10,target
447_swingley_aslin_2002_15,47,447,swingley_aslin_2002,15,raby,raby,target,87,18,0.8285714285714286,NA,1,NA,1,NA,1,2900,2900,2900,-10,target
447_swingley_aslin_2002_15,55,447,swingley_aslin_2002,15,shawl,shawl,target,106,0,1,NA,1,NA,1,NA,0,3533.3333333333335,3533.3333333333335,3533.3333333333335,-10,target
448_swingley_aslin_2002_15,37,448,swingley_aslin_2002,15,kier,kier,target,68,12,0.85,NA,1,NA,0,NA,1,2100,2100,2100,-10,target
448_swingley_aslin_2002_15,76,448,swingley_aslin_2002,15,mog,mog,target,75,30,0.7142857142857143,NA,2,NA,1,NA,2,1250.0000000000002,2000.0000000000002,2000.0000000000002,-10,target
448_swingley_aslin_2002_15,87,448,swingley_aslin_2002,15,raby,raby,target,45,59,0.4326923076923077,NA,1,NA,0,NA,1,1466.6666666666667,1466.6666666666667,1466.6666666666667,-10,target
449_swingley_aslin_2002_14,92,449,swingley_aslin_2002,14,raby,raby,target,18,86,0.17307692307692307,NA,1,NA,0,NA,1,466.6666666666667,466.6666666666667,466.6666666666667,-11,target
449_swingley_aslin_2002_14,94,449,swingley_aslin_2002,14,mog,mog,target,106,0,1,NA,1,NA,1,NA,0,3533.3333333333335,3533.3333333333335,3533.3333333333335,-11,target
449_swingley_aslin_2002_14,97,449,swingley_aslin_2002,14,shawl,shawl,target,92,13,0.8761904761904762,NA,1,NA,1,NA,1,3066.666666666667,3066.666666666667,3066.666666666667,-11,target
449_swingley_aslin_2002_14,100,449,swingley_aslin_2002,14,mog,mog,target,106,0,1,NA,1,NA,1,NA,0,3533.3333333333335,3533.3333333333335,3533.3333333333335,-11,target
449_swingley_aslin_2002_14,108,449,swingley_aslin_2002,14,opal,opal,target,77,27,0.7403846153846154,NA,2,NA,0,NA,2,1283.3333333333335,533.3333333333334,2033.3333333333335,-11,target
450_swingley_aslin_2002_14,48,450,swingley_aslin_2002,14,opal,opal,target,69,35,0.6634615384615384,NA,2,NA,0,NA,2,1150,1200,1200,-11,target
450_swingley_aslin_2002_14,50,450,swingley_aslin_2002,14,mog,mog,target,53,51,0.5096153846153846,NA,1,NA,0,NA,1,1766.6666666666667,1766.6666666666667,1766.6666666666667,-11,target
450_swingley_aslin_2002_14,54,450,swingley_aslin_2002,14,opal,opal,target,48,55,0.46601941747572817,NA,2,NA,0,NA,2,800,500.00000000000006,1100,-11,target
450_swingley_aslin_2002_14,55,450,swingley_aslin_2002,14,shawl,shawl,target,43,60,0.4174757281553398,NA,1,NA,0,NA,2,1200,233.33333333333334,1200,-11,target
451_swingley_aslin_2002_15,46,451,swingley_aslin_2002,15,yitty,yitty,target,51,46,0.5257731958762887,NA,2,NA,0,NA,2,850,1100,1100,-10,target
451_swingley_aslin_2002_15,55,451,swingley_aslin_2002,15,kier,kier,target,74,0,1,NA,2,NA,1,NA,0,1233.3333333333335,666.6666666666667,1800.0000000000002,-10,target
451_swingley_aslin_2002_15,94,451,swingley_aslin_2002,15,mog,mog,target,55,50,0.5238095238095238,NA,1,NA,0,NA,1,1833.3333333333335,1833.3333333333335,1833.3333333333335,-10,target
451_swingley_aslin_2002_15,101,451,swingley_aslin_2002,15,yitty,yitty,target,106,0,1,NA,1,NA,1,NA,0,3533.3333333333335,3533.3333333333335,3533.3333333333335,-10,target
451_swingley_aslin_2002_15,105,451,swingley_aslin_2002,15,raby,raby,target,52,50,0.5098039215686274,NA,1,NA,0,NA,1,1733.3333333333335,1733.3333333333335,1733.3333333333335,-10,target
451_swingley_aslin_2002_15,108,451,swingley_aslin_2002,15,opal,opal,target,106,0,1,NA,1,NA,1,NA,0,3533.3333333333335,3533.3333333333335,3533.3333333333335,-10,target
452_swingley_aslin_2002_15,34,452,swingley_aslin_2002,15,yitty,yitty,target,56,47,0.5436893203883495,NA,1,NA,0,NA,1,1566.6666666666667,1566.6666666666667,1566.6666666666667,-10,target
452_swingley_aslin_2002_15,35,452,swingley_aslin_2002,15,kier,kier,target,72,30,0.7058823529411765,NA,2,NA,1,NA,2,1200.0000000000002,1900.0000000000002,1900.0000000000002,-10,target
453_swingley_aslin_2002_15,34,453,swingley_aslin_2002,15,yitty,yitty,target,62,39,0.6138613861386139,NA,2,NA,0,NA,2,1033.3333333333335,1100,1100,-10,target
453_swingley_aslin_2002_15,37,453,swingley_aslin_2002,15,raby,raby,target,64,41,0.6095238095238096,NA,1,NA,1,NA,1,2133.3333333333335,2133.3333333333335,2133.3333333333335,-10,target
453_swingley_aslin_2002_15,39,453,swingley_aslin_2002,15,opal,opal,target,49,33,0.5975609756097561,NA,1,NA,0,NA,1,1633.3333333333335,1633.3333333333335,1633.3333333333335,-10,target
453_swingley_aslin_2002_15,41,453,swingley_aslin_2002,15,raby,raby,target,106,0,1,NA,1,NA,1,NA,0,3533.3333333333335,3533.3333333333335,3533.3333333333335,-10,target
454_swingley_aslin_2002_15,47,454,swingley_aslin_2002,15,raby,raby,target,60,45,0.5714285714285714,NA,1,NA,1,NA,1,2000.0000000000002,2000.0000000000002,2000.0000000000002,-10,target
454_swingley_aslin_2002_15,55,454,swingley_aslin_2002,15,shawl,shawl,target,37,67,0.3557692307692308,NA,2,NA,0,NA,2,616.6666666666667,400,833.3333333333334,-10,target
454_swingley_aslin_2002_15,61,454,swingley_aslin_2002,15,raby,raby,target,44,61,0.41904761904761906,NA,1,NA,0,NA,1,1466.6666666666667,1466.6666666666667,1466.6666666666667,-10,target
455_swingley_aslin_2002_14,45,455,swingley_aslin_2002,14,opal,opal,target,39,65,0.375,NA,1,NA,0,NA,1,1300,1300,1300,-11,target
455_swingley_aslin_2002_14,46,455,swingley_aslin_2002,14,yitty,yitty,target,87,16,0.8446601941747572,NA,2,NA,0,NA,2,1450,700,2200,-11,target
455_swingley_aslin_2002_14,50,455,swingley_aslin_2002,14,shawl,shawl,target,62,41,0.6019417475728155,NA,2,NA,0,NA,2,1033.3333333333335,1033.3333333333335,1033.3333333333335,-11,target
455_swingley_aslin_2002_14,52,455,swingley_aslin_2002,14,shawl,shawl,target,68,33,0.6732673267326733,NA,2,NA,0,NA,2,1133.3333333333335,1233.3333333333335,1233.3333333333335,-11,target
455_swingley_aslin_2002_14,53,455,swingley_aslin_2002,14,raby,raby,target,68,34,0.6666666666666666,NA,1,NA,0,NA,1,2100,2100,2100,-11,target
455_swingley_aslin_2002_14,56,455,swingley_aslin_2002,14,yitty,yitty,target,91,0,1,NA,1,NA,1,NA,0,3033.3333333333335,3033.3333333333335,3033.3333333333335,-11,target
456_swingley_aslin_2002_15,35,456,swingley_aslin_2002,15,kier,kier,target,30,69,0.30303030303030304,NA,1,NA,0,NA,2,533.3333333333334,366.6666666666667,533.3333333333334,-10,target
456_swingley_aslin_2002_15,37,456,swingley_aslin_2002,15,raby,raby,target,28,76,0.2692307692307692,NA,1,NA,0,NA,1,933.3333333333334,933.3333333333334,933.3333333333334,-10,target
456_swingley_aslin_2002_15,38,456,swingley_aslin_2002,15,shawl,shawl,target,78,18,0.8125,NA,2,NA,0,NA,2,1300.0000000000002,533.3333333333334,2066.666666666667,-10,target
456_swingley_aslin_2002_15,39,456,swingley_aslin_2002,15,opal,opal,target,84,18,0.8235294117647058,NA,2,NA,0,NA,2,1400,700,2100,-10,target
456_swingley_aslin_2002_15,44,456,swingley_aslin_2002,15,yitty,yitty,target,50,51,0.49504950495049505,NA,2,NA,0,NA,2,833.3333333333334,1100,1100,-10,target
456_swingley_aslin_2002_15,45,456,swingley_aslin_2002,15,opal,opal,target,82,23,0.780952380952381,NA,1,NA,1,NA,1,2400,2400,2400,-10,target
457_swingley_aslin_2002_14,54,457,swingley_aslin_2002,14,opal,opal,target,82,21,0.7961165048543689,NA,2,NA,0,NA,2,1366.6666666666667,833.3333333333334,1900.0000000000002,-11,target
457_swingley_aslin_2002_14,55,457,swingley_aslin_2002,14,shawl,shawl,target,45,56,0.44554455445544555,NA,2,NA,0,NA,2,750,433.33333333333337,1066.6666666666667,-11,target
457_swingley_aslin_2002_14,56,457,swingley_aslin_2002,14,raby,raby,target,76,27,0.7378640776699029,NA,2,NA,0,NA,2,1266.6666666666667,900.0000000000001,1633.3333333333335,-11,target
457_swingley_aslin_2002_14,59,457,swingley_aslin_2002,14,yitty,yitty,target,56,30,0.6511627906976745,NA,2,NA,0,NA,2,833.3333333333335,1033.3333333333335,1033.3333333333335,-11,target
458_swingley_aslin_2002_15,50,458,swingley_aslin_2002,15,mog,mog,target,74,30,0.7115384615384616,NA,1,NA,1,NA,1,2400,2400,2400,-10,target
458_swingley_aslin_2002_15,51,458,swingley_aslin_2002,15,kier,kier,target,4,101,0.0380952380952381,NA,NA,NA,0,NA,0,NA,NA,NA,-10,target
458_swingley_aslin_2002_15,52,458,swingley_aslin_2002,15,raby,raby,target,68,34,0.6666666666666666,NA,1,NA,0,NA,1,2233.3333333333335,2233.3333333333335,2233.3333333333335,-10,target
458_swingley_aslin_2002_15,53,458,swingley_aslin_2002,15,shawl,shawl,target,106,0,1,NA,1,NA,1,NA,0,3533.3333333333335,3533.3333333333335,3533.3333333333335,-10,target
458_swingley_aslin_2002_15,54,458,swingley_aslin_2002,15,opal,opal,target,73,31,0.7019230769230769,NA,1,NA,1,NA,1,2433.3333333333335,2433.3333333333335,2433.3333333333335,-10,target
458_swingley_aslin_2002_15,55,458,swingley_aslin_2002,15,shawl,shawl,target,73,31,0.7019230769230769,NA,1,NA,1,NA,1,2433.3333333333335,2433.3333333333335,2433.3333333333335,-10,target
458_swingley_aslin_2002_15,56,458,swingley_aslin_2002,15,raby,raby,target,106,0,1,NA,1,NA,1,NA,0,3533.3333333333335,3533.3333333333335,3533.3333333333335,-10,target
459_swingley_aslin_2002_15,48,459,swingley_aslin_2002,15,kier,kier,target,61,42,0.5922330097087378,NA,2,NA,0,NA,2,1016.6666666666667,1200,1200,-10,target
459_swingley_aslin_2002_15,50,459,swingley_aslin_2002,15,shawl,shawl,target,66,35,0.6534653465346535,NA,2,NA,0,NA,2,1100,1233.3333333333335,1233.3333333333335,-10,target
460_swingley_aslin_2002_15,95,460,swingley_aslin_2002,15,gall,gall,target,64,41,0.6095238095238096,NA,1,NA,1,NA,1,2133.3333333333335,2133.3333333333335,2133.3333333333335,-10,target
460_swingley_aslin_2002_15,102,460,swingley_aslin_2002,15,tog,tog,target,77,25,0.7549019607843137,NA,2,NA,0,NA,2,1283.3333333333335,1166.6666666666667,1400,-10,target
461_swingley_aslin_2002_14,6,461,swingley_aslin_2002,14,tog,tog,target,41,62,0.39805825242718446,NA,1,NA,0,NA,1,1366.6666666666667,1366.6666666666667,1366.6666666666667,-11,target
461_swingley_aslin_2002_14,8,461,swingley_aslin_2002,14,vaby,vaby,target,106,0,1,NA,1,NA,1,NA,0,3533.3333333333335,3533.3333333333335,3533.3333333333335,-11,target
461_swingley_aslin_2002_14,9,461,swingley_aslin_2002,14,gall,gall,target,84,18,0.8235294117647058,NA,2,NA,0,NA,2,1400,1233.3333333333335,1566.6666666666667,-11,target
461_swingley_aslin_2002_14,12,461,swingley_aslin_2002,14,opple,opple,target,76,29,0.7238095238095238,NA,1,NA,1,NA,1,2533.3333333333335,2533.3333333333335,2533.3333333333335,-11,target
461_swingley_aslin_2002_14,14,461,swingley_aslin_2002,14,cur,cur,target,72,0,1,NA,1,NA,1,NA,0,2400,2400,2400,-11,target
461_swingley_aslin_2002_14,20,461,swingley_aslin_2002,14,tog,tog,target,83,22,0.7904761904761904,NA,1,NA,1,NA,1,2766.666666666667,2766.666666666667,2766.666666666667,-11,target
462_swingley_aslin_2002_14,3,462,swingley_aslin_2002,14,pity,pity,target,77,27,0.7403846153846154,NA,1,NA,1,NA,1,2400,2400,2400,-11,target
462_swingley_aslin_2002_14,9,462,swingley_aslin_2002,14,cur,cur,target,78,25,0.7572815533980582,NA,2,NA,0,NA,2,1300,1300,1300,-11,target
462_swingley_aslin_2002_14,10,462,swingley_aslin_2002,14,vaby,vaby,target,106,0,1,NA,1,NA,1,NA,0,3533.3333333333335,3533.3333333333335,3533.3333333333335,-11,target
462_swingley_aslin_2002_14,13,462,swingley_aslin_2002,14,opple,opple,target,84,20,0.8076923076923077,NA,2,NA,0,NA,2,1400,1166.6666666666667,1633.3333333333335,-11,target
462_swingley_aslin_2002_14,17,462,swingley_aslin_2002,14,gall,gall,target,80,20,0.8,NA,2,NA,0,NA,2,1333.3333333333335,1100,1566.6666666666667,-11,target
462_swingley_aslin_2002_14,20,462,swingley_aslin_2002,14,tog,tog,target,106,0,1,NA,1,NA,1,NA,0,3533.3333333333335,3533.3333333333335,3533.3333333333335,-11,target
463_swingley_aslin_2002_15,2,463,swingley_aslin_2002,15,opple,opple,target,52,49,0.5148514851485149,NA,1,NA,0,NA,1,1733.3333333333335,1733.3333333333335,1733.3333333333335,-10,target
463_swingley_aslin_2002_15,5,463,swingley_aslin_2002,15,tog,tog,target,47,54,0.46534653465346537,NA,1,NA,0,NA,1,1566.6666666666667,1566.6666666666667,1566.6666666666667,-10,target
463_swingley_aslin_2002_15,9,463,swingley_aslin_2002,15,cur,cur,target,106,0,1,NA,1,NA,1,NA,0,3533.3333333333335,3533.3333333333335,3533.3333333333335,-10,target
463_swingley_aslin_2002_15,18,463,swingley_aslin_2002,15,vaby,vaby,target,74,27,0.7326732673267327,NA,2,NA,0,NA,2,1233.3333333333335,1700.0000000000002,1700.0000000000002,-10,target
464_swingley_aslin_2002_15,21,464,swingley_aslin_2002,15,cur,cur,target,106,0,1,NA,1,NA,1,NA,0,3533.3333333333335,3533.3333333333335,3533.3333333333335,-10,target
464_swingley_aslin_2002_15,131,464,swingley_aslin_2002,15,cur,cur,target,106,0,1,NA,1,NA,1,NA,0,3533.3333333333335,3533.3333333333335,3533.3333333333335,-10,target
464_swingley_aslin_2002_15,133,464,swingley_aslin_2002,15,tog,tog,target,38,64,0.37254901960784315,NA,2,NA,0,NA,2,633.3333333333334,500.00000000000006,766.6666666666667,-10,target
464_swingley_aslin_2002_15,134,464,swingley_aslin_2002,15,opple,opple,target,37,67,0.3557692307692308,NA,1,NA,0,NA,1,1233.3333333333335,1233.3333333333335,1233.3333333333335,-10,target
464_swingley_aslin_2002_15,139,464,swingley_aslin_2002,15,vaby,vaby,target,65,35,0.65,NA,2,NA,0,NA,3,1083.3333333333335,1066.6666666666667,1100,-10,target
465_swingley_aslin_2002_15,133,465,swingley_aslin_2002,15,tog,tog,target,91,10,0.900990099009901,NA,1,NA,0,NA,0,2733.3333333333335,300,2733.3333333333335,-10,target
465_swingley_aslin_2002_15,138,465,swingley_aslin_2002,15,pity,pity,target,33,71,0.3173076923076923,NA,1,NA,0,NA,1,1100,1100,1100,-10,target
465_swingley_aslin_2002_15,139,465,swingley_aslin_2002,15,vaby,vaby,target,78,26,0.75,NA,2,NA,0,NA,2,1300,1200,1400,-10,target
466_swingley_aslin_2002_15,1,466,swingley_aslin_2002,15,pity,pity,target,74,28,0.7254901960784313,NA,1,NA,1,NA,1,2366.666666666667,2366.666666666667,2366.666666666667,-10,target
466_swingley_aslin_2002_15,131,466,swingley_aslin_2002,15,cur,cur,target,75,28,0.7281553398058253,NA,2,NA,1,NA,2,1250.0000000000002,2000.0000000000002,2000.0000000000002,-10,target
466_swingley_aslin_2002_15,133,466,swingley_aslin_2002,15,tog,tog,target,67,38,0.638095238095238,NA,1,NA,1,NA,1,2233.3333333333335,2233.3333333333335,2233.3333333333335,-10,target
466_swingley_aslin_2002_15,137,466,swingley_aslin_2002,15,tog,tog,target,106,0,1,NA,1,NA,1,NA,0,3533.3333333333335,3533.3333333333335,3533.3333333333335,-10,target
467_swingley_aslin_2002_14,5,467,swingley_aslin_2002,14,tog,tog,target,79,26,0.7523809523809524,NA,1,NA,1,NA,1,2633.3333333333335,2633.3333333333335,2633.3333333333335,-11,target
467_swingley_aslin_2002_14,9,467,swingley_aslin_2002,14,cur,cur,target,1,103,0.009615384615384616,NA,NA,NA,0,NA,0,NA,NA,NA,-11,target
467_swingley_aslin_2002_14,11,467,swingley_aslin_2002,14,gall,gall,target,21,46,0.31343283582089554,NA,1,NA,0,NA,2,433.33333333333337,266.6666666666667,433.33333333333337,-11,target
467_swingley_aslin_2002_14,13,467,swingley_aslin_2002,14,opple,opple,target,13,90,0.1262135922330097,NA,1,NA,0,NA,1,433.33333333333337,433.33333333333337,433.33333333333337,-11,target
467_swingley_aslin_2002_14,17,467,swingley_aslin_2002,14,gall,gall,target,3,102,0.02857142857142857,NA,NA,NA,0,NA,0,NA,NA,NA,-11,target
467_swingley_aslin_2002_14,20,467,swingley_aslin_2002,14,tog,tog,target,106,0,1,NA,1,NA,1,NA,0,3533.3333333333335,3533.3333333333335,3533.3333333333335,-11,target
468_swingley_aslin_2002_14,20,468,swingley_aslin_2002,14,pity,pity,target,43,62,0.4095238095238095,NA,1,NA,0,NA,1,1433.3333333333335,1433.3333333333335,1433.3333333333335,-11,target
468_swingley_aslin_2002_14,95,468,swingley_aslin_2002,14,gall,gall,target,33,69,0.3235294117647059,NA,1,NA,0,NA,2,1100,1100,1100,-11,target
468_swingley_aslin_2002_14,98,468,swingley_aslin_2002,14,pity,pity,target,55,10,0.8461538461538461,NA,2,NA,1,NA,0,916.6666666666667,666.6666666666667,1166.6666666666667,-11,target
468_swingley_aslin_2002_14,99,468,swingley_aslin_2002,14,tog,tog,target,57,47,0.5480769230769231,NA,1,NA,1,NA,1,1900.0000000000002,1900.0000000000002,1900.0000000000002,-11,target
468_swingley_aslin_2002_14,103,468,swingley_aslin_2002,14,vaby,vaby,target,86,18,0.8269230769230769,NA,1,NA,1,NA,1,2533.3333333333335,2533.3333333333335,2533.3333333333335,-11,target
469_swingley_aslin_2002_14,132,469,swingley_aslin_2002,14,vaby,vaby,target,91,15,0.8584905660377359,NA,1,NA,1,NA,1,3033.3333333333335,3033.3333333333335,3033.3333333333335,-11,target
470_swingley_aslin_2002_14,5,470,swingley_aslin_2002,14,tog,tog,target,73,29,0.7156862745098039,NA,1,NA,0,NA,1,2433.3333333333335,2433.3333333333335,2433.3333333333335,-11,target
470_swingley_aslin_2002_14,10,470,swingley_aslin_2002,14,vaby,vaby,target,57,46,0.5533980582524272,NA,2,NA,0,NA,2,950,1466.6666666666667,1466.6666666666667,-11,target
470_swingley_aslin_2002_14,13,470,swingley_aslin_2002,14,opple,opple,target,58,46,0.5576923076923077,NA,2,NA,0,NA,2,966.6666666666667,400,1533.3333333333335,-11,target
470_swingley_aslin_2002_14,20,470,swingley_aslin_2002,14,tog,tog,target,106,0,1,NA,1,NA,1,NA,0,3533.3333333333335,3533.3333333333335,3533.3333333333335,-11,target
470_swingley_aslin_2002_14,25,470,swingley_aslin_2002,14,pity,pity,target,76,27,0.7378640776699029,NA,1,NA,1,NA,1,2533.3333333333335,2533.3333333333335,2533.3333333333335,-11,target
471_swingley_aslin_2002_14,95,471,swingley_aslin_2002,14,gall,gall,target,81,23,0.7788461538461539,NA,1,NA,1,NA,1,2700,2700,2700,-11,target
471_swingley_aslin_2002_14,97,471,swingley_aslin_2002,14,vaby,vaby,target,40,65,0.38095238095238093,NA,1,NA,0,NA,1,1333.3333333333335,1333.3333333333335,1333.3333333333335,-11,target
471_swingley_aslin_2002_14,98,471,swingley_aslin_2002,14,pity,pity,target,65,28,0.6989247311827957,NA,2,NA,0,NA,2,1083.3333333333335,1066.6666666666667,1100,-11,target
471_swingley_aslin_2002_14,99,471,swingley_aslin_2002,14,tog,tog,target,73,31,0.7019230769230769,NA,1,NA,1,NA,1,2433.3333333333335,2433.3333333333335,2433.3333333333335,-11,target
471_swingley_aslin_2002_14,101,471,swingley_aslin_2002,14,gall,gall,target,68,37,0.6476190476190476,NA,1,NA,1,NA,1,2266.666666666667,2266.666666666667,2266.666666666667,-11,target
471_swingley_aslin_2002_14,102,471,swingley_aslin_2002,14,tog,tog,target,72,29,0.7128712871287128,NA,1,NA,1,NA,1,2033.3333333333335,2033.3333333333335,2033.3333333333335,-11,target
471_swingley_aslin_2002_14,119,471,swingley_aslin_2002,14,cur,cur,target,73,31,0.7019230769230769,NA,2,NA,0,NA,2,1216.6666666666667,1333.3333333333335,1333.3333333333335,-11,target
472_swingley_aslin_2002_15,94,472,swingley_aslin_2002,15,mog,mog,target,69,23,0.75,NA,1,NA,1,NA,1,2300,2300,2300,-10,target
472_swingley_aslin_2002_15,100,472,swingley_aslin_2002,15,mog,mog,target,55,48,0.5339805825242718,NA,2,NA,0,NA,2,916.6666666666667,666.6666666666667,1166.6666666666667,-10,target
473_swingley_aslin_2002_15,46,473,swingley_aslin_2002,15,shawl,shawl,target,33,64,0.3402061855670103,NA,1,NA,0,NA,1,933.3333333333334,933.3333333333334,933.3333333333334,-10,target
473_swingley_aslin_2002_15,52,473,swingley_aslin_2002,15,mog,mog,target,81,23,0.7788461538461539,NA,2,NA,0,NA,2,1350,1166.6666666666667,1533.3333333333335,-10,target
473_swingley_aslin_2002_15,59,473,swingley_aslin_2002,15,mog,mog,target,65,39,0.625,NA,2,NA,0,NA,2,1083.3333333333335,1466.6666666666667,1466.6666666666667,-10,target
474_swingley_aslin_2002_14,92,474,swingley_aslin_2002,14,raby,raby,target,106,0,1,NA,1,NA,1,NA,0,3533.3333333333335,3533.3333333333335,3533.3333333333335,-11,target
474_swingley_aslin_2002_14,94,474,swingley_aslin_2002,14,mog,mog,target,106,0,1,NA,1,NA,1,NA,0,3533.3333333333335,3533.3333333333335,3533.3333333333335,-11,target
474_swingley_aslin_2002_14,100,474,swingley_aslin_2002,14,mog,mog,target,67,39,0.6320754716981132,NA,1,NA,1,NA,1,2233.3333333333335,2233.3333333333335,2233.3333333333335,-11,target
474_swingley_aslin_2002_14,105,474,swingley_aslin_2002,14,raby,raby,target,31,63,0.32978723404255317,NA,1,NA,0,NA,1,1033.3333333333335,1033.3333333333335,1033.3333333333335,-11,target
475_swingley_aslin_2002_15,3,475,swingley_aslin_2002,15,cur,cur,target,38,61,0.3838383838383838,NA,2,NA,0,NA,3,633.3333333333334,400,866.6666666666667,-10,target
475_swingley_aslin_2002_15,6,475,swingley_aslin_2002,15,tog,tog,target,65,37,0.6372549019607843,NA,1,NA,1,NA,1,2166.666666666667,2166.666666666667,2166.666666666667,-10,target
475_swingley_aslin_2002_15,8,475,swingley_aslin_2002,15,vaby,vaby,target,65,38,0.6310679611650486,NA,1,NA,1,NA,1,2166.666666666667,2166.666666666667,2166.666666666667,-10,target
475_swingley_aslin_2002_15,17,475,swingley_aslin_2002,15,vaby,vaby,target,87,17,0.8365384615384616,NA,1,NA,1,NA,1,2900,2900,2900,-10,target
475_swingley_aslin_2002_15,22,475,swingley_aslin_2002,15,pity,pity,target,45,36,0.5555555555555556,NA,2,NA,0,NA,1,750.0000000000001,500.00000000000006,1000.0000000000001,-10,target
476_swingley_aslin_2002_15,4,476,swingley_aslin_2002,15,tog,tog,target,61,43,0.5865384615384616,NA,1,NA,1,NA,1,2000.0000000000002,2000.0000000000002,2000.0000000000002,-10,target
476_swingley_aslin_2002_15,8,476,swingley_aslin_2002,15,cur,cur,target,28,77,0.26666666666666666,NA,1,NA,0,NA,1,933.3333333333334,933.3333333333334,933.3333333333334,-10,target
476_swingley_aslin_2002_15,9,476,swingley_aslin_2002,15,vaby,vaby,target,36,69,0.34285714285714286,NA,1,NA,0,NA,1,1200,1200,1200,-10,target
476_swingley_aslin_2002_15,12,476,swingley_aslin_2002,15,opple,opple,target,37,30,0.5522388059701493,NA,1,NA,0,NA,1,1233.3333333333335,1233.3333333333335,1233.3333333333335,-10,target
476_swingley_aslin_2002_15,19,476,swingley_aslin_2002,15,tog,tog,target,68,23,0.7472527472527473,NA,2,NA,0,NA,2,1133.3333333333335,666.6666666666667,1600,-10,target
476_swingley_aslin_2002_15,22,476,swingley_aslin_2002,15,cur,cur,target,43,22,0.6615384615384615,NA,1,NA,0,NA,1,1300,1300,1300,-10,target
477_swingley_aslin_2002_15,46,477,swingley_aslin_2002,15,yitty,yitty,target,77,25,0.7549019607843137,NA,1,NA,1,NA,1,2566.666666666667,2566.666666666667,2566.666666666667,-10,target
477_swingley_aslin_2002_15,89,477,swingley_aslin_2002,15,kier,kier,target,79,0,1,NA,1,NA,1,NA,0,2466.666666666667,2466.666666666667,2466.666666666667,-10,target
477_swingley_aslin_2002_15,94,477,swingley_aslin_2002,15,mog,mog,target,106,0,1,NA,1,NA,1,NA,0,3533.3333333333335,3533.3333333333335,3533.3333333333335,-10,target
477_swingley_aslin_2002_15,97,477,swingley_aslin_2002,15,shawl,shawl,target,47,50,0.4845360824742268,NA,2,NA,0,NA,3,783.3333333333335,566.6666666666667,1000.0000000000001,-10,target
477_swingley_aslin_2002_15,105,477,swingley_aslin_2002,15,raby,raby,target,77,26,0.7475728155339806,NA,2,NA,0,NA,2,1283.3333333333335,1466.6666666666667,1466.6666666666667,-10,target
477_swingley_aslin_2002_15,108,477,swingley_aslin_2002,15,opal,opal,target,40,58,0.40816326530612246,NA,1,NA,0,NA,1,1033.3333333333335,300,1033.3333333333335,-10,target
478_swingley_aslin_2002_15,95,478,swingley_aslin_2002,15,gall,gall,target,106,0,1,NA,1,NA,1,NA,0,3533.3333333333335,3533.3333333333335,3533.3333333333335,-10,target
478_swingley_aslin_2002_15,100,478,swingley_aslin_2002,15,opple,opple,target,79,25,0.7596153846153846,NA,1,NA,1,NA,1,2633.3333333333335,2633.3333333333335,2633.3333333333335,-10,target
478_swingley_aslin_2002_15,101,478,swingley_aslin_2002,15,gall,gall,target,106,0,1,NA,1,NA,1,NA,0,3533.3333333333335,3533.3333333333335,3533.3333333333335,-10,target
478_swingley_aslin_2002_15,102,478,swingley_aslin_2002,15,tog,tog,target,106,0,1,NA,1,NA,1,NA,0,3533.3333333333335,3533.3333333333335,3533.3333333333335,-10,target
479_swingley_aslin_2002_14,6,479,swingley_aslin_2002,14,tog,tog,target,43,60,0.4174757281553398,NA,1,NA,0,NA,1,1433.3333333333335,1433.3333333333335,1433.3333333333335,-11,target
479_swingley_aslin_2002_14,8,479,swingley_aslin_2002,14,vaby,vaby,target,25,77,0.24509803921568626,NA,1,NA,0,NA,1,800,800,800,-11,target
479_swingley_aslin_2002_14,14,479,swingley_aslin_2002,14,cur,cur,target,36,66,0.35294117647058826,NA,2,NA,0,NA,1,600,633.3333333333334,633.3333333333334,-11,target
479_swingley_aslin_2002_14,16,479,swingley_aslin_2002,14,gall,gall,target,65,34,0.6565656565656566,NA,2,NA,0,NA,2,1083.3333333333335,666.6666666666667,1500,-11,target
479_swingley_aslin_2002_14,20,479,swingley_aslin_2002,14,tog,tog,target,72,31,0.6990291262135923,NA,1,NA,1,NA,1,2400,2400,2400,-11,target
479_swingley_aslin_2002_14,22,479,swingley_aslin_2002,14,pity,pity,target,70,35,0.6666666666666666,NA,1,NA,0,NA,1,2333.3333333333335,2333.3333333333335,2333.3333333333335,-11,target
480_swingley_aslin_2002_14,1,480,swingley_aslin_2002,14,pity,pity,target,77,27,0.7403846153846154,NA,2,NA,0,NA,2,1283.3333333333335,1733.3333333333335,1733.3333333333335,-11,target
480_swingley_aslin_2002_14,133,480,swingley_aslin_2002,14,tog,tog,target,93,11,0.8942307692307693,NA,1,NA,1,NA,0,3100,3100,3100,-11,target
480_swingley_aslin_2002_14,134,480,swingley_aslin_2002,14,opple,opple,target,21,83,0.20192307692307693,NA,1,NA,0,NA,1,700,700,700,-11,target
481_swingley_aslin_2002_14,131,481,swingley_aslin_2002,14,cur,cur,target,76,26,0.7450980392156863,NA,2,NA,0,NA,2,1266.6666666666667,1566.6666666666667,1566.6666666666667,-11,target
481_swingley_aslin_2002_14,132,481,swingley_aslin_2002,14,vaby,vaby,target,87,16,0.8446601941747572,NA,2,NA,0,NA,2,1450,666.6666666666667,2233.3333333333335,-11,target
481_swingley_aslin_2002_14,137,481,swingley_aslin_2002,14,tog,tog,target,73,31,0.7019230769230769,NA,1,NA,1,NA,1,2433.3333333333335,2433.3333333333335,2433.3333333333335,-11,target
481_swingley_aslin_2002_14,141,481,swingley_aslin_2002,14,gall,gall,target,71,16,0.8160919540229885,NA,1,NA,1,NA,1,2000.0000000000002,2000.0000000000002,2000.0000000000002,-11,target
482_swingley_aslin_2002_15,46,482,swingley_aslin_2002,15,shawl,shawl,target,59,42,0.5841584158415841,NA,2,NA,0,NA,2,983.3333333333335,633.3333333333334,1333.3333333333335,-10,target
482_swingley_aslin_2002_15,52,482,swingley_aslin_2002,15,mog,mog,target,106,0,1,NA,1,NA,1,NA,0,3533.3333333333335,3533.3333333333335,3533.3333333333335,-10,target
482_swingley_aslin_2002_15,53,482,swingley_aslin_2002,15,opal,opal,target,76,26,0.7450980392156863,NA,2,NA,0,NA,2,1266.6666666666667,1233.3333333333335,1300,-10,target
482_swingley_aslin_2002_15,58,482,swingley_aslin_2002,15,opal,opal,target,31,67,0.3163265306122449,NA,2,NA,0,NA,2,516.6666666666667,433.33333333333337,600,-10,target
482_swingley_aslin_2002_15,63,482,swingley_aslin_2002,15,kier,kier,target,39,63,0.38235294117647056,NA,2,NA,0,NA,3,650,700,700,-10,target
483_swingley_aslin_2002_14,3,483,swingley_aslin_2002,14,pity,pity,target,68,34,0.6666666666666666,NA,2,NA,0,NA,2,1133.3333333333335,966.6666666666667,1300,-11,target
483_swingley_aslin_2002_14,5,483,swingley_aslin_2002,14,tog,tog,target,77,27,0.7403846153846154,NA,2,NA,0,NA,2,1283.3333333333335,500.00000000000006,2066.666666666667,-11,target
483_swingley_aslin_2002_14,9,483,swingley_aslin_2002,14,cur,cur,target,83,19,0.8137254901960784,NA,2,NA,0,NA,2,1383.3333333333335,833.3333333333334,1933.3333333333335,-11,target
483_swingley_aslin_2002_14,11,483,swingley_aslin_2002,14,gall,gall,target,22,81,0.21359223300970873,NA,NA,NA,0,NA,0,NA,366.6666666666667,NA,-11,target
484_swingley_aslin_2002_14,3,484,swingley_aslin_2002,14,pity,pity,target,106,0,1,NA,1,NA,1,NA,0,3533.3333333333335,3533.3333333333335,3533.3333333333335,-11,target
484_swingley_aslin_2002_14,10,484,swingley_aslin_2002,14,vaby,vaby,target,84,22,0.7924528301886793,NA,1,NA,1,NA,1,2800,2800,2800,-11,target
484_swingley_aslin_2002_14,11,484,swingley_aslin_2002,14,gall,gall,target,0,92,0,NA,NA,NA,0,NA,0,NA,NA,NA,-11,target
484_swingley_aslin_2002_14,13,484,swingley_aslin_2002,14,opple,opple,target,88,17,0.8380952380952381,NA,1,NA,1,NA,1,2933.3333333333335,2933.3333333333335,2933.3333333333335,-11,target
485_swingley_aslin_2002_14,99,485,swingley_aslin_2002,14,tog,tog,target,106,0,1,NA,1,NA,1,NA,0,3533.3333333333335,3533.3333333333335,3533.3333333333335,-11,target
485_swingley_aslin_2002_14,100,485,swingley_aslin_2002,14,opple,opple,target,106,0,1,NA,1,NA,1,NA,0,3533.3333333333335,3533.3333333333335,3533.3333333333335,-11,target
486_swingley_aslin_2002_15,1,486,swingley_aslin_2002,15,cur,cur,target,49,52,0.48514851485148514,NA,2,NA,0,NA,3,816.6666666666667,633.3333333333334,1000.0000000000001,-10,target
486_swingley_aslin_2002_15,98,486,swingley_aslin_2002,15,pity,pity,target,34,68,0.3333333333333333,NA,1,NA,0,NA,2,766.6666666666667,366.6666666666667,766.6666666666667,-10,target
486_swingley_aslin_2002_15,100,486,swingley_aslin_2002,15,opple,opple,target,40,58,0.40816326530612246,NA,1,NA,0,NA,2,966.6666666666667,366.6666666666667,966.6666666666667,-10,target
486_swingley_aslin_2002_15,102,486,swingley_aslin_2002,15,tog,tog,target,51,49,0.51,NA,1,NA,0,NA,2,1400,300,1400,-10,target
487_swingley_aslin_2002_14,35,487,swingley_aslin_2002,14,kier,kier,target,59,42,0.5841584158415841,NA,2,NA,0,NA,2,983.3333333333334,500.00000000000006,1466.6666666666667,-11,target
487_swingley_aslin_2002_14,36,487,swingley_aslin_2002,14,mog,mog,target,67,36,0.6504854368932039,NA,2,NA,0,NA,2,1116.6666666666667,966.6666666666667,1266.6666666666667,-11,target
487_swingley_aslin_2002_14,37,487,swingley_aslin_2002,14,raby,raby,target,45,59,0.4326923076923077,NA,1,NA,0,NA,1,1500,1500,1500,-11,target
487_swingley_aslin_2002_14,39,487,swingley_aslin_2002,14,opal,opal,target,87,12,0.8787878787878788,NA,2,NA,0,NA,0,1450,966.6666666666667,1933.3333333333335,-11,target
487_swingley_aslin_2002_14,43,487,swingley_aslin_2002,14,mog,mog,target,50,52,0.49019607843137253,NA,1,NA,0,NA,1,1400,266.6666666666667,1400,-11,target
487_swingley_aslin_2002_14,45,487,swingley_aslin_2002,14,opal,opal,target,87,18,0.8285714285714286,NA,1,NA,1,NA,1,2900,2900,2900,-11,target
488_swingley_aslin_2002_14,33,488,swingley_aslin_2002,14,kier,kier,target,42,61,0.4077669902912621,NA,2,NA,0,NA,3,700,933.3333333333334,933.3333333333334,-11,target
488_swingley_aslin_2002_14,47,488,swingley_aslin_2002,14,raby,raby,target,35,68,0.33980582524271846,NA,1,NA,0,NA,1,800,800,800,-11,target
488_swingley_aslin_2002_14,51,488,swingley_aslin_2002,14,yitty,yitty,target,14,90,0.1346153846153846,NA,1,NA,0,NA,1,466.6666666666667,466.6666666666667,466.6666666666667,-11,target
488_swingley_aslin_2002_14,52,488,swingley_aslin_2002,14,mog,mog,target,99,6,0.9428571428571428,NA,1,NA,1,NA,0,3300.0000000000005,3300.0000000000005,3300.0000000000005,-11,target
488_swingley_aslin_2002_14,53,488,swingley_aslin_2002,14,opal,opal,target,61,31,0.6630434782608695,NA,2,NA,1,NA,1,1016.6666666666667,766.6666666666667,1266.6666666666667,-11,target
488_swingley_aslin_2002_14,58,488,swingley_aslin_2002,14,opal,opal,target,36,69,0.34285714285714286,NA,1,NA,0,NA,1,1200,1200,1200,-11,target
488_swingley_aslin_2002_14,63,488,swingley_aslin_2002,14,kier,kier,target,106,0,1,NA,1,NA,1,NA,0,3533.3333333333335,3533.3333333333335,3533.3333333333335,-11,target
969_potter_remix_23,3,969,potter_remix,23,boca,mouth,target,6,65,0.08450704225352113,NA,NA,NA,0,NA,0,NA,NA,NA,-2,target
969_potter_remix_23,6,969,potter_remix,23,puerta,door,target,65,13,0.8333333333333334,NA,1,NA,1,NA,1,1866.6666666666667,300,1866.6666666666667,-2,target
969_potter_remix_23,7,969,potter_remix,23,pie,foot,target,81,0,1,NA,1,NA,1,NA,0,2700,2700,2700,-2,target
969_potter_remix_23,14,969,potter_remix,23,perro,dog,target,87,0,1,NA,1,NA,1,NA,0,2900,2900,2900,-2,target
969_potter_remix_23,16,969,potter_remix,23,gato,kitty,target,96,0,1,NA,1,NA,1,NA,0,3200,3200,3200,-2,target
970_potter_remix_20,2,970,potter_remix,20,boca,mouth,target,84,0,1,NA,1,NA,1,NA,0,2800,2800,2800,-5,target
970_potter_remix_20,5,970,potter_remix,20,globo,balloon,target,46,43,0.5168539325842697,NA,2,NA,0,NA,2,766.6666666666667,1100,1100,-5,target
970_potter_remix_20,15,970,potter_remix,20,gato,kitty,target,67,0,1,NA,1,NA,1,NA,0,2233.3333333333335,2233.3333333333335,2233.3333333333335,-5,target
970_potter_remix_20,16,970,potter_remix,20,galleta,cookie,target,85,0,1,NA,1,NA,1,NA,0,2833.3333333333335,2833.3333333333335,2833.3333333333335,-5,target
971_potter_remix_22,6,971,potter_remix,22,door,door,target,79,0,1,NA,1,NA,1,NA,0,2633.3333333333335,2633.3333333333335,2633.3333333333335,-3,target
971_potter_remix_22,14,971,potter_remix,22,dog,dog,target,91,0,1,NA,1,NA,1,NA,0,3033.3333333333335,3033.3333333333335,3033.3333333333335,-3,target
972_potter_remix_28,2,972,potter_remix,28,mouth,mouth,target,97,0,1,NA,1,NA,1,NA,0,3233.3333333333335,3233.3333333333335,3233.3333333333335,3,target
972_potter_remix_28,9,972,potter_remix,28,dog,dog,target,103,0,1,NA,1,NA,1,NA,0,3433.3333333333335,3433.3333333333335,3433.3333333333335,3,target
972_potter_remix_28,15,972,potter_remix,28,kitty,kitty,target,80,9,0.898876404494382,NA,1,NA,1,NA,0,2666.666666666667,2666.666666666667,2666.666666666667,3,target
972_potter_remix_28,16,972,potter_remix,28,cookie,cookie,target,83,6,0.9325842696629213,NA,1,NA,1,NA,0,2766.666666666667,2766.666666666667,2766.666666666667,3,target
973_potter_remix_25,4,973,potter_remix,25,globo,balloon,target,43,24,0.6417910447761194,NA,1,NA,0,NA,1,1433.3333333333335,1433.3333333333335,1433.3333333333335,0,target
974_potter_remix_27,2,974,potter_remix,27,boca,mouth,target,34,24,0.5862068965517241,NA,1,NA,0,NA,1,1100,1100,1100,2,target
974_potter_remix_27,4,974,potter_remix,27,puerta,door,target,17,77,0.18085106382978725,NA,1,NA,0,NA,1,566.6666666666667,566.6666666666667,566.6666666666667,2,target
974_potter_remix_27,9,974,potter_remix,27,perro,dog,target,33,67,0.33,NA,1,NA,0,NA,1,1100,1100,1100,2,target
974_potter_remix_27,12,974,potter_remix,27,leche,milk,target,47,24,0.6619718309859155,NA,1,NA,0,NA,1,1566.6666666666667,1566.6666666666667,1566.6666666666667,2,target
974_potter_remix_27,16,974,potter_remix,27,galleta,cookie,target,31,38,0.4492753623188406,NA,2,NA,0,NA,2,516.6666666666667,566.6666666666667,566.6666666666667,2,target
975_potter_remix_19,4,975,potter_remix,19,balloon,balloon,target,51,38,0.5730337078651685,0.4811320754716981,1,NA,0,NA,1,1700.0000000000002,1700.0000000000002,1700.0000000000002,-6,target
975_potter_remix_19,6,975,potter_remix,19,door,door,target,65,0,1,0.6132075471698113,1,NA,1,NA,0,2166.666666666667,2166.666666666667,2166.666666666667,-6,target
975_potter_remix_19,7,975,potter_remix,19,foot,foot,target,79,0,1,NA,1,NA,1,NA,0,2633.3333333333335,2633.3333333333335,2633.3333333333335,-6,target
975_potter_remix_19,9,975,potter_remix,19,cookie,cookie,target,97,0,1,0.9150943396226415,1,NA,1,NA,0,3233.3333333333335,3233.3333333333335,3233.3333333333335,-6,target
975_potter_remix_19,10,975,potter_remix,19,milk,milk,target,96,0,1,NA,1,NA,1,NA,0,3200,3200,3200,-6,target
975_potter_remix_19,14,975,potter_remix,19,dog,dog,target,71,0,1,0.3113207547169811,1,NA,1,NA,0,2366.666666666667,2366.666666666667,2366.666666666667,-6,target
976_potter_remix_29,4,976,potter_remix,29,balloon,balloon,target,56,11,0.835820895522388,NA,1,NA,0,NA,0,1866.6666666666667,1866.6666666666667,1866.6666666666667,4,target
976_potter_remix_29,9,976,potter_remix,29,cookie,cookie,target,71,25,0.7395833333333334,NA,2,NA,0,NA,2,1183.3333333333335,1366.6666666666667,1366.6666666666667,4,target
976_potter_remix_29,10,976,potter_remix,29,milk,milk,target,55,0,1,NA,1,NA,1,NA,0,1833.3333333333335,1833.3333333333335,1833.3333333333335,4,target
976_potter_remix_29,16,976,potter_remix,29,kitty,kitty,target,90,0,1,NA,2,NA,1,NA,0,1500.0000000000002,2166.666666666667,2166.666666666667,4,target
977_potter_remix_25,2,977,potter_remix,25,mouth,mouth,target,54,0,1,NA,2,NA,1,NA,0,900,800,1000.0000000000001,0,target
977_potter_remix_25,5,977,potter_remix,25,balloon,balloon,target,71,31,0.696078431372549,0.5094339622641509,1,NA,0,NA,1,2200,2200,2200,0,target
977_potter_remix_25,9,977,potter_remix,25,dog,dog,target,55,17,0.7638888888888888,0.22641509433962265,1,NA,0,NA,1,1566.6666666666667,266.6666666666667,1566.6666666666667,0,target
977_potter_remix_25,16,977,potter_remix,25,cookie,cookie,target,73,13,0.8488372093023255,NA,1,NA,1,NA,1,2433.3333333333335,2433.3333333333335,2433.3333333333335,0,target
978_potter_remix_25,3,978,potter_remix,25,mouth,mouth,target,90,0,1,0.20754716981132082,2,NA,1,NA,0,1500,1733.3333333333335,1733.3333333333335,0,target
978_potter_remix_25,4,978,potter_remix,25,balloon,balloon,target,57,42,0.5757575757575758,0.37735849056603776,2,NA,0,NA,2,950,933.3333333333334,966.6666666666667,0,target
978_potter_remix_25,9,978,potter_remix,25,cookie,cookie,target,82,21,0.7961165048543689,NA,1,NA,0,NA,1,2633.3333333333335,2633.3333333333335,2633.3333333333335,0,target
978_potter_remix_25,10,978,potter_remix,25,milk,milk,target,26,68,0.2765957446808511,0.24528301886792453,1,NA,0,NA,2,700,700,700,0,target
978_potter_remix_25,14,978,potter_remix,25,dog,dog,target,88,17,0.8380952380952381,0.4339622641509434,1,NA,1,NA,1,2933.3333333333335,2933.3333333333335,2933.3333333333335,0,target
979_potter_remix_18,9,979,potter_remix,18,perro,dog,target,67,35,0.6568627450980392,NA,2,NA,0,NA,2,1116.6666666666667,533.3333333333334,1700.0000000000002,-7,target
979_potter_remix_18,15,979,potter_remix,18,gato,kitty,target,60,44,0.5769230769230769,NA,2,NA,0,NA,2,1000.0000000000001,1033.3333333333335,1033.3333333333335,-7,target
979_potter_remix_18,16,979,potter_remix,18,galleta,cookie,target,48,57,0.45714285714285713,NA,1,NA,0,NA,1,1600,1600,1600,-7,target
980_potter_remix_21,7,980,potter_remix,21,foot,foot,target,5,89,0.05319148936170213,0.04716981132075472,NA,NA,0,NA,0,NA,NA,NA,-4,target
980_potter_remix_21,14,980,potter_remix,21,dog,dog,target,29,29,0.5,NA,1,NA,0,NA,1,966.6666666666667,966.6666666666667,966.6666666666667,-4,target
980_potter_remix_21,16,980,potter_remix,21,kitty,kitty,target,106,0,1,0.160377358490566,1,NA,1,NA,0,3533.3333333333335,3533.3333333333335,3533.3333333333335,-4,target
981_potter_remix_23,6,981,potter_remix,23,foot,foot,target,39,57,0.40625,NA,1,NA,0,NA,1,1166.6666666666667,1166.6666666666667,1166.6666666666667,-2,target
981_potter_remix_23,16,981,potter_remix,23,cookie,cookie,target,92,0,1,NA,1,NA,1,NA,0,3066.666666666667,3066.666666666667,3066.666666666667,-2,target
982_potter_remix_28,7,982,potter_remix,28,pie,foot,target,36,46,0.43902439024390244,NA,1,NA,0,NA,1,1200,1200,1200,3,target
982_potter_remix_28,10,982,potter_remix,28,leche,milk,target,55,28,0.6626506024096386,NA,1,NA,0,NA,1,1833.3333333333335,1833.3333333333335,1833.3333333333335,3,target
982_potter_remix_28,14,982,potter_remix,28,perro,dog,target,75,0,1,NA,1,NA,1,NA,0,2500,2500,2500,3,target
983_potter_remix_21,9,983,potter_remix,21,perro,dog,target,57,15,0.7916666666666666,NA,1,NA,1,NA,1,1900.0000000000002,1900.0000000000002,1900.0000000000002,-4,target
984_potter_remix_26,2,984,potter_remix,26,mouth,mouth,target,63,17,0.7875,NA,1,NA,1,NA,1,2100,2100,2100,1,target
984_potter_remix_26,5,984,potter_remix,26,balloon,balloon,target,33,71,0.3173076923076923,-0.2169811320754717,1,NA,0,NA,1,733.3333333333334,366.6666666666667,733.3333333333334,1,target
984_potter_remix_26,9,984,potter_remix,26,dog,dog,target,24,56,0.3,-0.4433962264150943,1,NA,0,NA,1,800,800,800,1,target
984_potter_remix_26,16,984,potter_remix,26,cookie,cookie,target,80,21,0.7920792079207921,NA,1,NA,0,NA,1,2566.666666666667,2566.666666666667,2566.666666666667,1,target
985_potter_remix_19,2,985,potter_remix,19,boca,mouth,target,106,0,1,NA,1,NA,1,NA,0,3533.3333333333335,3533.3333333333335,3533.3333333333335,-6,target
985_potter_remix_19,6,985,potter_remix,19,pie,foot,target,103,0,1,NA,1,NA,1,NA,0,3433.3333333333335,3433.3333333333335,3433.3333333333335,-6,target
985_potter_remix_19,15,985,potter_remix,19,gato,kitty,target,29,64,0.3118279569892473,NA,1,NA,0,NA,1,633.3333333333334,633.3333333333334,633.3333333333334,-6,target
986_potter_remix_18,3,986,potter_remix,18,mouth,mouth,target,80,0,1,0.7547169811320755,1,NA,1,NA,0,2666.666666666667,2666.666666666667,2666.666666666667,-7,target
986_potter_remix_18,7,986,potter_remix,18,foot,foot,target,5,85,0.05555555555555555,NA,NA,NA,0,NA,0,NA,NA,NA,-7,target
986_potter_remix_18,10,986,potter_remix,18,milk,milk,target,88,0,1,0.8301886792452831,1,NA,1,NA,0,2933.3333333333335,2933.3333333333335,2933.3333333333335,-7,target
986_potter_remix_18,14,986,potter_remix,18,dog,dog,target,95,0,1,NA,1,NA,1,NA,0,3166.666666666667,3166.666666666667,3166.666666666667,-7,target
987_potter_remix_20,2,987,potter_remix,20,mouth,mouth,target,92,0,1,NA,1,NA,1,NA,0,3066.666666666667,3066.666666666667,3066.666666666667,-5,target
987_potter_remix_20,4,987,potter_remix,20,door,door,target,16,72,0.18181818181818182,NA,1,NA,0,NA,1,533.3333333333334,533.3333333333334,533.3333333333334,-5,target
987_potter_remix_20,5,987,potter_remix,20,balloon,balloon,target,72,28,0.72,NA,1,NA,1,NA,1,2400,2400,2400,-5,target
988_potter_remix_19,9,988,potter_remix,19,perro,dog,target,77,15,0.8369565217391305,NA,1,NA,1,NA,1,2566.666666666667,2566.666666666667,2566.666666666667,-6,target
988_potter_remix_19,12,988,potter_remix,19,leche,milk,target,104,0,1,NA,1,NA,1,NA,0,3466.666666666667,3466.666666666667,3466.666666666667,-6,target
989_potter_remix_20,3,989,potter_remix,20,mouth,mouth,target,43,39,0.524390243902439,NA,1,NA,0,NA,1,1433.3333333333335,1433.3333333333335,1433.3333333333335,-5,target
989_potter_remix_20,7,989,potter_remix,20,foot,foot,target,57,14,0.8028169014084507,NA,1,NA,1,NA,1,1900.0000000000002,1900.0000000000002,1900.0000000000002,-5,target
990_potter_remix_18,9,990,potter_remix,18,dog,dog,target,105,0,1,NA,1,NA,1,NA,0,3500.0000000000005,3500.0000000000005,3500.0000000000005,-7,target
990_potter_remix_18,12,990,potter_remix,18,milk,milk,target,88,0,1,NA,2,NA,1,NA,0,1466.6666666666667,1466.6666666666667,1466.6666666666667,-7,target
991_potter_remix_26,6,991,potter_remix,26,foot,foot,target,66,30,0.6875,NA,2,NA,0,NA,2,1100,1166.6666666666667,1166.6666666666667,1,target
991_potter_remix_26,9,991,potter_remix,26,dog,dog,target,37,37,0.5,NA,1,NA,0,NA,1,1233.3333333333335,1233.3333333333335,1233.3333333333335,1,target
991_potter_remix_26,12,991,potter_remix,26,milk,milk,target,104,0,1,NA,1,NA,1,NA,0,3466.666666666667,3466.666666666667,3466.666666666667,1,target
991_potter_remix_26,16,991,potter_remix,26,cookie,cookie,target,95,0,1,NA,1,NA,1,NA,0,3166.666666666667,3166.666666666667,3166.666666666667,1,target
992_potter_remix_23,6,992,potter_remix,23,foot,foot,target,87,12,0.8787878787878788,NA,1,NA,0,NA,1,2900,2900,2900,-2,target
992_potter_remix_23,9,992,potter_remix,23,dog,dog,target,104,0,1,NA,1,NA,1,NA,0,3466.666666666667,3466.666666666667,3466.666666666667,-2,target
992_potter_remix_23,16,992,potter_remix,23,cookie,cookie,target,62,22,0.7380952380952381,NA,2,NA,0,NA,2,1033.3333333333335,1300,1300,-2,target
993_potter_remix_20,3,993,potter_remix,20,mouth,mouth,target,65,4,0.9420289855072463,0.6132075471698113,1,NA,1,NA,0,2166.666666666667,2166.666666666667,2166.666666666667,-5,target
993_potter_remix_20,4,993,potter_remix,20,balloon,balloon,target,96,0,1,0.9056603773584906,1,NA,1,NA,0,3200,3200,3200,-5,target
993_potter_remix_20,9,993,potter_remix,20,cookie,cookie,target,88,9,0.9072164948453608,NA,1,NA,1,NA,0,2933.3333333333335,2933.3333333333335,2933.3333333333335,-5,target
993_potter_remix_20,10,993,potter_remix,20,milk,milk,target,93,0,1,0.839622641509434,1,NA,1,NA,0,3100,3100,3100,-5,target
993_potter_remix_20,14,993,potter_remix,20,dog,dog,target,77,0,1,0.7264150943396226,1,NA,1,NA,0,2566.666666666667,2566.666666666667,2566.666666666667,-5,target
994_potter_remix_22,6,994,potter_remix,22,pie,foot,target,85,0,1,NA,1,NA,1,NA,0,2833.3333333333335,2833.3333333333335,2833.3333333333335,-3,target
994_potter_remix_22,9,994,potter_remix,22,perro,dog,target,25,72,0.25773195876288657,NA,1,NA,0,NA,1,833.3333333333334,833.3333333333334,833.3333333333334,-3,target
994_potter_remix_22,16,994,potter_remix,22,galleta,cookie,target,80,0,1,NA,1,NA,1,NA,0,2666.666666666667,2666.666666666667,2666.666666666667,-3,target
995_potter_remix_28,4,995,potter_remix,28,globo,balloon,target,85,0,1,NA,1,NA,1,NA,0,2833.3333333333335,2833.3333333333335,2833.3333333333335,3,target
995_potter_remix_28,7,995,potter_remix,28,pie,foot,target,81,0,1,NA,1,NA,1,NA,0,2700,2700,2700,3,target
997_potter_remix_27,4,997,potter_remix,27,balloon,balloon,target,73,17,0.8111111111111111,NA,1,NA,1,NA,1,2433.3333333333335,2433.3333333333335,2433.3333333333335,2,target
998_potter_remix_19,3,998,potter_remix,19,puerta,door,target,93,0,1,NA,1,NA,1,NA,0,3100,3100,3100,-6,target
998_potter_remix_19,8,998,potter_remix,19,perro,dog,target,100,0,1,NA,1,NA,1,NA,0,3333.3333333333335,3333.3333333333335,3333.3333333333335,-6,target
999_potter_remix_29,2,999,potter_remix,29,boca,mouth,target,71,32,0.6893203883495146,NA,1,NA,1,NA,1,2366.666666666667,2366.666666666667,2366.666666666667,4,target
999_potter_remix_29,6,999,potter_remix,29,pie,foot,target,97,0,1,NA,1,NA,1,NA,0,3100,3100,3100,4,target
999_potter_remix_29,9,999,potter_remix,29,perro,dog,target,64,39,0.6213592233009708,NA,1,NA,1,NA,1,2133.3333333333335,2133.3333333333335,2133.3333333333335,4,target
999_potter_remix_29,15,999,potter_remix,29,gato,kitty,target,88,0,1,NA,2,NA,1,NA,0,1466.6666666666667,1333.3333333333335,1600,4,target
999_potter_remix_29,16,999,potter_remix,29,galleta,cookie,target,106,0,1,NA,1,NA,1,NA,0,3533.3333333333335,3533.3333333333335,3533.3333333333335,4,target
1000_potter_remix_25,10,1000,potter_remix,25,leche,milk,target,72,30,0.7058823529411765,NA,1,NA,0,NA,1,2033.3333333333335,366.6666666666667,2033.3333333333335,0,target
1001_potter_remix_25,2,1001,potter_remix,25,boca,mouth,target,104,0,1,NA,1,NA,1,NA,0,3466.666666666667,3466.666666666667,3466.666666666667,0,target
1001_potter_remix_25,6,1001,potter_remix,25,pie,foot,target,19,79,0.19387755102040816,NA,1,NA,0,NA,2,633.3333333333334,633.3333333333334,633.3333333333334,0,target
1003_potter_remix_23,6,1003,potter_remix,23,puerta,door,target,87,0,1,NA,1,NA,1,NA,0,2900,2900,2900,-2,target
1003_potter_remix_23,9,1003,potter_remix,23,galleta,cookie,target,100,0,1,NA,1,NA,1,NA,0,3333.3333333333335,3333.3333333333335,3333.3333333333335,-2,target
1003_potter_remix_23,16,1003,potter_remix,23,gato,kitty,target,93,0,1,NA,1,NA,1,NA,0,3100,3100,3100,-2,target
1004_potter_remix_21,7,1004,potter_remix,21,foot,foot,target,88,12,0.88,NA,1,NA,1,NA,1,2933.3333333333335,2933.3333333333335,2933.3333333333335,-4,target
1004_potter_remix_21,9,1004,potter_remix,21,cookie,cookie,target,89,4,0.956989247311828,NA,1,NA,1,NA,0,2966.666666666667,2966.666666666667,2966.666666666667,-4,target
1004_potter_remix_21,10,1004,potter_remix,21,milk,milk,target,92,0,1,NA,1,NA,1,NA,0,3066.666666666667,3066.666666666667,3066.666666666667,-4,target
1005_potter_remix_26,3,1005,potter_remix,26,boca,mouth,target,106,0,1,NA,1,NA,1,NA,0,3533.3333333333335,3533.3333333333335,3533.3333333333335,1,target
1005_potter_remix_26,6,1005,potter_remix,26,puerta,door,target,65,36,0.6435643564356436,NA,1,NA,0,NA,1,2033.3333333333335,2033.3333333333335,2033.3333333333335,1,target
1005_potter_remix_26,16,1005,potter_remix,26,gato,kitty,target,80,21,0.7920792079207921,NA,2,NA,0,NA,2,1333.3333333333335,1233.3333333333335,1433.3333333333335,1,target
1006_potter_remix_19,1,1006,potter_remix,19,mouth,mouth,target,26,46,0.3611111111111111,NA,1,NA,0,NA,1,700,700,700,-6,target
1006_potter_remix_19,4,1006,potter_remix,19,balloon,balloon,target,75,30,0.7142857142857143,NA,1,NA,1,NA,1,2500,2500,2500,-6,target
1006_potter_remix_19,5,1006,potter_remix,19,foot,foot,target,36,69,0.34285714285714286,NA,1,NA,0,NA,1,1200,1200,1200,-6,target
1007_potter_remix_18,4,1007,potter_remix,18,puerta,door,target,57,0,1,NA,1,NA,1,NA,0,1900.0000000000002,1900.0000000000002,1900.0000000000002,-7,target
1007_potter_remix_18,12,1007,potter_remix,18,leche,milk,target,73,0,1,NA,1,NA,1,NA,0,2433.3333333333335,2433.3333333333335,2433.3333333333335,-7,target
1008_potter_remix_20,7,1008,potter_remix,20,pie,foot,target,60,14,0.8108108108108109,NA,1,NA,1,NA,1,2000.0000000000002,2000.0000000000002,2000.0000000000002,-5,target
1008_potter_remix_20,14,1008,potter_remix,20,perro,dog,target,71,0,1,NA,1,NA,1,NA,0,2366.666666666667,2366.666666666667,2366.666666666667,-5,target
1009_potter_remix_19,3,1009,potter_remix,19,mouth,mouth,target,40,39,0.5063291139240507,0.37735849056603776,1,NA,0,NA,1,1333.3333333333335,1333.3333333333335,1333.3333333333335,-6,target
1009_potter_remix_19,4,1009,potter_remix,19,balloon,balloon,target,72,21,0.7741935483870968,NA,2,NA,0,NA,2,1200,766.6666666666667,1633.3333333333335,-6,target
1009_potter_remix_19,9,1009,potter_remix,19,cookie,cookie,target,72,19,0.7912087912087912,NA,2,NA,0,NA,2,1200,1100,1300,-6,target
1009_potter_remix_19,10,1009,potter_remix,19,milk,milk,target,93,0,1,0.509433962264151,1,NA,1,NA,0,3100,3100,3100,-6,target
1010_potter_remix_20,2,1010,potter_remix,20,boca,mouth,target,39,24,0.6190476190476191,NA,1,NA,0,NA,1,1300,1300,1300,-5,target
1011_potter_remix_18,3,1011,potter_remix,18,boca,mouth,target,83,0,1,NA,1,NA,1,NA,0,2766.666666666667,2766.666666666667,2766.666666666667,-7,target
1011_potter_remix_18,7,1011,potter_remix,18,pie,foot,target,87,0,1,NA,1,NA,1,NA,0,2900,2900,2900,-7,target
1011_potter_remix_18,16,1011,potter_remix,18,gato,kitty,target,101,0,1,NA,1,NA,1,NA,0,3366.666666666667,3366.666666666667,3366.666666666667,-7,target
1012_potter_remix_26,4,1012,potter_remix,26,globo,balloon,target,92,0,1,NA,1,NA,1,NA,0,3066.666666666667,3066.666666666667,3066.666666666667,1,target
1012_potter_remix_26,6,1012,potter_remix,26,puerta,door,target,51,17,0.75,NA,1,NA,0,NA,1,1533.3333333333335,1533.3333333333335,1533.3333333333335,1,target
1012_potter_remix_26,14,1012,potter_remix,26,perro,dog,target,85,0,1,NA,1,NA,1,NA,0,2833.3333333333335,2833.3333333333335,2833.3333333333335,1,target
1012_potter_remix_26,16,1012,potter_remix,26,gato,kitty,target,29,33,0.46774193548387094,NA,1,NA,0,NA,1,966.6666666666667,966.6666666666667,966.6666666666667,1,target
1413_garrison_bergelson_2020_17,1,1413,garrison_bergelson_2020,17,kitty,kitty,target,51,55,0.4811320754716981,0.09905660377358488,2,NA,0,NA,3,51,NA,72,-8,target
1413_garrison_bergelson_2020_17,4,1413,garrison_bergelson_2020,17,puppy,puppy,target,65,41,0.6132075471698113,0.09905660377358494,1,NA,1,NA,1,130,NA,130,-8,target
1413_garrison_bergelson_2020_17,6,1413,garrison_bergelson_2020,17,highchair,highchair,target,21,85,0.19811320754716982,0.0849056603773585,1,NA,0,NA,1,42,NA,42,-8,target
1413_garrison_bergelson_2020_17,9,1413,garrison_bergelson_2020,17,elephant,elephant,target,46,60,0.4339622641509434,NA,1,NA,0,NA,1,92,NA,92,-8,target
1413_garrison_bergelson_2020_17,11,1413,garrison_bergelson_2020,17,baba,baba,target,61,45,0.5754716981132075,0.5754716981132075,1,NA,1,NA,1,122,NA,122,-8,target
1413_garrison_bergelson_2020_17,13,1413,garrison_bergelson_2020,17,ball,ball,target,99,7,0.9339622641509434,0.08490566037735847,1,NA,1,NA,0,198,NA,198,-8,target
1413_garrison_bergelson_2020_17,17,1413,garrison_bergelson_2020,17,shoe,shoe,target,106,0,1,0.5754716981132075,1,NA,1,NA,0,212,212,212,-8,target
1413_garrison_bergelson_2020_17,21,1413,garrison_bergelson_2020,17,puppy,puppy,target,66,40,0.6226415094339622,0.09905660377358494,2,NA,0,NA,2,66,NA,74,-8,target
1413_garrison_bergelson_2020_17,26,1413,garrison_bergelson_2020,17,ball,ball,target,89,17,0.839622641509434,0.08490566037735847,2,NA,1,NA,2,89,NA,144,-8,target
1414_garrison_bergelson_2020_16,1,1414,garrison_bergelson_2020,16,shoe,shoe,target,79,27,0.7452830188679245,NA,2,NA,0,NA,2,79,NA,88,-9,target
1414_garrison_bergelson_2020_16,8,1414,garrison_bergelson_2020,16,hat,hat,target,56,50,0.5283018867924528,0.04716981132075476,1,NA,0,NA,1,100,NA,100,-9,target
1414_garrison_bergelson_2020_16,13,1414,garrison_bergelson_2020,16,water,water,target,70,36,0.660377358490566,0.3113207547169811,2,NA,0,NA,2,70,NA,100,-9,target
1414_garrison_bergelson_2020_16,15,1414,garrison_bergelson_2020,16,ball,ball,target,29,77,0.27358490566037735,0.009433962264150941,2,NA,0,NA,3,29,NA,30,-9,target
1414_garrison_bergelson_2020_16,17,1414,garrison_bergelson_2020,16,shoe,shoe,target,76,30,0.71698113207547165,NA,2,NA,0,NA,2,76,NA,96,-9,target
1414_garrison_bergelson_2020_16,20,1414,garrison_bergelson_2020,16,hat,hat,target,53,53,0.5,0.04716981132075476,1,NA,0,NA,1,96,NA,96,-9,target
1414_garrison_bergelson_2020_16,22,1414,garrison_bergelson_2020,16,sock,sock,target,38,37,0.5066666666666667,0.018867924528301883,1,NA,0,NA,1,76,NA,76,-9,target
1414_garrison_bergelson_2020_16,28,1414,garrison_bergelson_2020,16,monkey,monkey,target,80,26,0.7547169811320755,NA,1,NA,1,NA,1,160,NA,160,-9,target
1414_garrison_bergelson_2020_16,30,1414,garrison_bergelson_2020,16,ball,ball,target,76,22,0.7755102040816326,0.009433962264150941,1,NA,1,NA,1,152,NA,152,-9,target
1415_garrison_bergelson_2020_15,2,1415,garrison_bergelson_2020,15,hat,hat,target,41,65,0.3867924528301887,0.089622641509434,2,NA,0,NA,2,41,NA,58,-10,target
1415_garrison_bergelson_2020_15,9,1415,garrison_bergelson_2020,15,hat,hat,target,48,58,0.4528301886792453,0.089622641509434,2,NA,0,NA,2,48,NA,50,-10,target
1415_garrison_bergelson_2020_15,11,1415,garrison_bergelson_2020,15,sippycup,sippycup,target,18,88,0.16981132075471697,-0.5235849056603774,1,NA,0,NA,1,36,NA,36,-10,target
1415_garrison_bergelson_2020_15,17,1415,garrison_bergelson_2020,15,book,book,target,21,85,0.19811320754716982,-0.5235849056603774,1,NA,0,NA,2,30,NA,30,-10,target
1415_garrison_bergelson_2020_15,23,1415,garrison_bergelson_2020,15,truck,truck,target,71,35,0.6698113207547169,0.08962264150943389,2,NA,0,NA,2,71,NA,76,-10,target
1415_garrison_bergelson_2020_15,28,1415,garrison_bergelson_2020,15,ball,ball,target,72,15,0.8275862068965517,NA,3,NA,0,NA,2,48,NA,72,-10,target
1415_garrison_bergelson_2020_15,30,1415,garrison_bergelson_2020,15,sippycup,sippycup,target,41,65,0.3867924528301887,-0.5235849056603774,1,NA,0,NA,1,82,NA,82,-10,target
1416_garrison_bergelson_2020_15,1,1416,garrison_bergelson_2020,15,puppy,puppy,target,29,77,0.27358490566037735,NA,1,NA,0,NA,1,58,NA,58,-10,target
1416_garrison_bergelson_2020_15,8,1416,garrison_bergelson_2020,15,stroller,stroller,target,55,51,0.5188679245283019,0.08962264150943394,3,NA,0,NA,3,36.666666666666664,NA,42,-10,target
1416_garrison_bergelson_2020_15,10,1416,garrison_bergelson_2020,15,book,book,target,42,64,0.39622641509433965,NA,1,NA,0,NA,1,54,NA,54,-10,target
1416_garrison_bergelson_2020_15,11,1416,garrison_bergelson_2020,15,shoe,shoe,target,84,5,0.9438202247191011,NA,1,NA,1,NA,0,164,NA,164,-10,target
1416_garrison_bergelson_2020_15,15,1416,garrison_bergelson_2020,15,blocks,blocks,target,63,43,0.5943396226415094,-0.08490566037735847,1,NA,0,NA,1,112,NA,112,-10,target
1416_garrison_bergelson_2020_15,17,1416,garrison_bergelson_2020,15,puppy,puppy,target,106,0,1,NA,1,NA,1,NA,0,212,212,212,-10,target
1416_garrison_bergelson_2020_15,26,1416,garrison_bergelson_2020,15,book,book,target,84,22,0.7924528301886793,NA,2,NA,0,NA,2,84,NA,96,-10,target
1416_garrison_bergelson_2020_15,30,1416,garrison_bergelson_2020,15,blocks,blocks,target,21,48,0.30434782608695654,-0.08490566037735847,1,NA,0,NA,1,42,NA,42,-10,target
1417_garrison_bergelson_2020_17,2,1417,garrison_bergelson_2020,17,horse,horse,target,47,59,0.44339622641509435,-0.06603773584905659,2,NA,0,NA,2,47,NA,52,-8,target
1417_garrison_bergelson_2020_17,5,1417,garrison_bergelson_2020,17,bottle,bottle,target,90,16,0.8490566037735849,0.7405660377358491,1,NA,1,NA,1,162,NA,162,-8,target
1417_garrison_bergelson_2020_17,10,1417,garrison_bergelson_2020,17,whale,whale,target,36,70,0.33962264150943394,0.24056603773584903,1,NA,0,NA,1,50,NA,50,-8,target
1417_garrison_bergelson_2020_17,17,1417,garrison_bergelson_2020,17,shoe,shoe,target,106,0,1,0.7405660377358491,1,NA,1,NA,0,212,212,212,-8,target
1417_garrison_bergelson_2020_17,20,1417,garrison_bergelson_2020,17,tiger,tiger,target,69,28,0.711340206185567,NA,1,NA,0,NA,1,120,NA,120,-8,target
1417_garrison_bergelson_2020_17,22,1417,garrison_bergelson_2020,17,owl,owl,target,37,54,0.4065934065934066,-0.20754716981132076,1,NA,0,NA,2,56,NA,56,-8,target
1417_garrison_bergelson_2020_17,23,1417,garrison_bergelson_2020,17,bottle,bottle,target,67,39,0.6320754716981132,0.7405660377358491,1,NA,1,NA,1,134,NA,134,-8,target
1417_garrison_bergelson_2020_17,28,1417,garrison_bergelson_2020,17,book,book,target,85,21,0.8018867924528302,0.24056603773584906,1,NA,1,NA,1,170,NA,170,-8,target
1417_garrison_bergelson_2020_17,32,1417,garrison_bergelson_2020,17,book,book,target,106,0,1,0.24056603773584906,1,NA,1,NA,0,212,212,212,-8,target
1418_garrison_bergelson_2020_17,1,1418,garrison_bergelson_2020,17,baby,baby,target,38,68,0.3584905660377358,-0.12264150943396229,1,NA,0,NA,1,66,NA,66,-8,target
1418_garrison_bergelson_2020_17,2,1418,garrison_bergelson_2020,17,bottle,bottle,target,7,88,0.07368421052631578,0.053168843734881455,NA,NA,0,NA,0,NA,NA,NA,-8,target
1418_garrison_bergelson_2020_17,5,1418,garrison_bergelson_2020,17,doggy,doggy,target,54,52,0.5094339622641509,-0.12264150943396224,2,NA,0,NA,3,54,NA,78,-8,target
1418_garrison_bergelson_2020_17,13,1418,garrison_bergelson_2020,17,bottle,bottle,target,42,41,0.5060240963855421,0.053168843734881455,1,NA,0,NA,1,84,NA,84,-8,target
1418_garrison_bergelson_2020_17,15,1418,garrison_bergelson_2020,17,book,book,target,97,9,0.9150943396226415,NA,1,NA,1,NA,0,194,NA,194,-8,target
1418_garrison_bergelson_2020_17,22,1418,garrison_bergelson_2020,17,stroller,stroller,target,85,21,0.8018867924528302,0.1403483309143687,2,NA,0,NA,2,85,NA,140,-8,target
1418_garrison_bergelson_2020_17,23,1418,garrison_bergelson_2020,17,doggy,doggy,target,56,50,0.5283018867924528,-0.12264150943396224,2,NA,0,NA,2,56,NA,60,-8,target
1418_garrison_bergelson_2020_17,26,1418,garrison_bergelson_2020,17,sunglasses,sunglasses,target,30,76,0.2830188679245283,NA,1,NA,0,NA,1,60,NA,60,-8,target
1418_garrison_bergelson_2020_17,30,1418,garrison_bergelson_2020,17,book,book,target,99,0,1,NA,2,NA,1,NA,0,99,NA,114,-8,target
1421_garrison_bergelson_2020_14,5,1421,garrison_bergelson_2020,14,kitty,kitty,target,52,54,0.49056603773584906,NA,1,NA,0,NA,1,104,NA,104,-11,target
1421_garrison_bergelson_2020_14,8,1421,garrison_bergelson_2020,14,bottle,bottle,target,47,32,0.5949367088607594,0.1556603773584906,1,NA,0,NA,2,72,NA,72,-11,target
1421_garrison_bergelson_2020_14,10,1421,garrison_bergelson_2020,14,teddy,teddy,target,56,50,0.5283018867924528,NA,2,NA,0,NA,2,56,NA,62,-11,target
1421_garrison_bergelson_2020_14,14,1421,garrison_bergelson_2020,14,phone,phone,target,45,61,0.42452830188679247,0.3349056603773585,1,NA,0,NA,1,90,NA,90,-11,target
1421_garrison_bergelson_2020_14,20,1421,garrison_bergelson_2020,14,blocks,blocks,target,106,0,1,0.33018867924528306,1,NA,1,NA,0,212,212,212,-11,target
1421_garrison_bergelson_2020_14,22,1421,garrison_bergelson_2020,14,phone,phone,target,90,0,1,0.3349056603773585,2,NA,1,NA,0,90,NA,118,-11,target
1421_garrison_bergelson_2020_14,27,1421,garrison_bergelson_2020,14,shoe,shoe,target,35,71,0.330188679245283,0.330188679245283,1,NA,0,NA,1,70,NA,70,-11,target
1421_garrison_bergelson_2020_14,29,1421,garrison_bergelson_2020,14,teddy,teddy,target,14,86,0.14,NA,1,NA,0,NA,1,28,NA,28,-11,target
1422_garrison_bergelson_2020_17,1,1422,garrison_bergelson_2020,17,diaper,diaper,target,52,54,0.49056603773584906,0.5283018867924528,1,NA,0,NA,2,96,NA,96,-8,target
1422_garrison_bergelson_2020_17,8,1422,garrison_bergelson_2020,17,shoe,shoe,target,63,43,0.5943396226415094,NA,1,NA,1,NA,1,126,NA,126,-8,target
1422_garrison_bergelson_2020_17,10,1422,garrison_bergelson_2020,17,book,book,target,24,82,0.22641509433962265,0.037735849056603765,1,NA,0,NA,1,48,NA,48,-8,target
1422_garrison_bergelson_2020_17,17,1422,garrison_bergelson_2020,17,diaper,diaper,target,60,46,0.5660377358490566,0.5283018867924528,1,NA,1,NA,1,120,NA,120,-8,target
1422_garrison_bergelson_2020_17,23,1422,garrison_bergelson_2020,17,car,car,target,106,0,1,0.5283018867924528,1,NA,1,NA,0,212,212,212,-8,target
1422_garrison_bergelson_2020_17,28,1422,garrison_bergelson_2020,17,puppy,puppy,target,31,40,0.43661971830985913,-0.12735849056603776,1,NA,0,NA,1,62,NA,62,-8,target
1422_garrison_bergelson_2020_17,32,1422,garrison_bergelson_2020,17,puppy,puppy,target,106,0,1,-0.12735849056603776,1,NA,1,NA,0,212,212,212,-8,target
1423_garrison_bergelson_2020_12,1,1423,garrison_bergelson_2020,12,ball,ball,target,79,27,0.7452830188679245,0.6252830188679245,2,NA,0,NA,2,79,NA,84,-13,target
1423_garrison_bergelson_2020_12,2,1423,garrison_bergelson_2020,12,bed,bed,target,45,40,0.5294117647058824,NA,2,NA,0,NA,3,45,NA,66,-13,target
1423_garrison_bergelson_2020_12,6,1423,garrison_bergelson_2020,12,puppy,puppy,target,87,19,0.8207547169811321,0.5615401491882404,2,NA,0,NA,2,87,NA,114,-13,target
1423_garrison_bergelson_2020_12,8,1423,garrison_bergelson_2020,12,teddy,teddy,target,84,22,0.7924528301886793,NA,2,NA,0,NA,2,84,NA,104,-13,target
1423_garrison_bergelson_2020_12,13,1423,garrison_bergelson_2020,12,book,book,target,56,30,0.6511627906976745,0.5615401491882405,1,NA,0,NA,1,112,NA,112,-13,target
1423_garrison_bergelson_2020_12,17,1423,garrison_bergelson_2020,12,teddy,teddy,target,42,23,0.6461538461538462,NA,1,NA,1,NA,1,74,NA,74,-13,target
1423_garrison_bergelson_2020_12,19,1423,garrison_bergelson_2020,12,puppy,puppy,target,106,0,1,0.5615401491882404,1,NA,1,NA,0,212,212,212,-13,target
1423_garrison_bergelson_2020_12,21,1423,garrison_bergelson_2020,12,diaper,diaper,target,88,12,0.88,0.6252830188679246,1,NA,1,NA,1,176,NA,176,-13,target
1424_garrison_bergelson_2020_12,2,1424,garrison_bergelson_2020,12,block,block,target,46,60,0.4339622641509434,0.23113207547169812,2,NA,0,NA,3,46,NA,48,-13,target
1424_garrison_bergelson_2020_12,6,1424,garrison_bergelson_2020,12,truck,truck,target,87,19,0.8207547169811321,0.5654355680449619,2,NA,0,NA,2,87,NA,118,-13,target
