recording_name,trial_number,subject_id,dataset_name,age_months,target_word,media_name,initial_look,samples_target,samples_distractor,prop_looking,prop_looking_diff,number_fixations,correct_shift,remain_on_target,latency_to_switch,total_aoi_switches,duration_of_look,first_look_dur,longest_look_by_trial,age_months_centred,data_split
108_108_pomper_saffran_2016_46,1,108,pomper_saffran_2016,46,orange,orange,neither,87,15,0.8529411764705882,NA,2,NA,NA,NA,2,1450,1500,1500,21,all
108_108_pomper_saffran_2016_46,2,108,pomper_saffran_2016,46,red,red,target,87,17,0.8365384615384616,NA,1,NA,1,NA,1,2900,2900,2900,21,all
108_108_pomper_saffran_2016_46,3,108,pomper_saffran_2016,46,yellow,yellow,target,106,0,1,0.6603773584905661,1,NA,1,NA,0,3533.3333333333335,3533.3333333333335,3533.3333333333335,21,all
108_108_pomper_saffran_2016_46,4,108,pomper_saffran_2016,46,white,white,distractor,77,22,0.7777777777777778,0.5754716981132075,1,1,NA,615,1,2566.666666666667,2566.666666666667,2566.666666666667,21,all
108_108_pomper_saffran_2016_46,5,108,pomper_saffran_2016,46,red,red,distractor,101,3,0.9711538461538461,NA,1,1,NA,140,0,3366.666666666667,3366.666666666667,3366.666666666667,21,all
108_108_pomper_saffran_2016_46,6,108,pomper_saffran_2016,46,black,black,distractor,69,36,0.6571428571428571,0.6509433962264151,1,1,NA,940,1,2300,2300,2300,21,all
108_108_pomper_saffran_2016_46,7,108,pomper_saffran_2016,46,orange,orange,target,59,0,1,NA,1,NA,1,NA,0,1966.6666666666667,1966.6666666666667,1966.6666666666667,21,all
108_108_pomper_saffran_2016_46,8,108,pomper_saffran_2016,46,brown,brown,neither,83,16,0.8383838383838383,0.5754716981132075,1,NA,NA,NA,1,2633.3333333333335,2633.3333333333335,2633.3333333333335,21,all
109_109_pomper_saffran_2016_43,9,109,pomper_saffran_2016,43,green,green,distractor,88,9,0.9072164948453608,NA,2,1,NA,140,0,1466.6666666666667,1000.0000000000001,1933.3333333333335,18,all
109_109_pomper_saffran_2016_43,10,109,pomper_saffran_2016,43,blue,blue,target,86,14,0.86,NA,1,NA,0,NA,1,2866.666666666667,2866.666666666667,2866.666666666667,18,all
109_109_pomper_saffran_2016_43,11,109,pomper_saffran_2016,43,black,black,target,106,0,1,0.7641509433962264,1,NA,1,NA,0,3533.3333333333335,3533.3333333333335,3533.3333333333335,18,all
109_109_pomper_saffran_2016_43,12,109,pomper_saffran_2016,43,brown,brown,distractor,86,17,0.8349514563106796,0.3584905660377359,1,1,NA,515,1,2866.666666666667,2866.666666666667,2866.666666666667,18,all
109_109_pomper_saffran_2016_43,13,109,pomper_saffran_2016,43,yellow,yellow,target,77,25,0.7549019607843137,0.7264150943396226,1,NA,1,NA,1,2566.666666666667,2566.666666666667,2566.666666666667,18,all
109_109_pomper_saffran_2016_43,14,109,pomper_saffran_2016,43,green,green,distractor,91,12,0.883495145631068,NA,1,1,NA,390,1,3033.3333333333335,3033.3333333333335,3033.3333333333335,18,all
109_109_pomper_saffran_2016_43,15,109,pomper_saffran_2016,43,white,white,distractor,54,48,0.5294117647058824,0.34905660377358494,1,1,NA,540,2,1800.0000000000002,1800.0000000000002,1800.0000000000002,18,all
109_109_pomper_saffran_2016_43,16,109,pomper_saffran_2016,43,blue,blue,distractor,101,3,0.9711538461538461,NA,1,1,NA,140,0,3366.666666666667,3366.666666666667,3366.666666666667,18,all
110_110_pomper_saffran_2016_47,1,110,pomper_saffran_2016,47,blue,blue,target,56,34,0.6222222222222222,NA,1,NA,0,NA,1,1866.6666666666667,1866.6666666666667,1866.6666666666667,22,all
110_110_pomper_saffran_2016_47,2,110,pomper_saffran_2016,47,green,green,target,58,0,1,NA,2,NA,1,NA,0,966.6666666666667,700,1233.3333333333335,22,all
110_110_pomper_saffran_2016_47,3,110,pomper_saffran_2016,47,black,black,distractor,70,33,0.6796116504854369,0.660377358490566,1,1,NA,915,1,2333.3333333333335,2333.3333333333335,2333.3333333333335,22,all
110_110_pomper_saffran_2016_47,4,110,pomper_saffran_2016,47,brown,brown,distractor,98,4,0.9607843137254902,0.46226415094339623,1,1,NA,215,0,3266.666666666667,3266.666666666667,3266.666666666667,22,all
110_110_pomper_saffran_2016_47,5,110,pomper_saffran_2016,47,green,green,target,106,0,1,NA,1,NA,1,NA,0,3533.3333333333335,3533.3333333333335,3533.3333333333335,22,all
110_110_pomper_saffran_2016_47,6,110,pomper_saffran_2016,47,yellow,yellow,distractor,103,0,1,0.6603773584905661,1,1,NA,90,0,3433.3333333333335,3433.3333333333335,3433.3333333333335,22,all
110_110_pomper_saffran_2016_47,7,110,pomper_saffran_2016,47,blue,blue,distractor,105,0,1,NA,1,1,NA,40,0,3500.0000000000005,3500.0000000000005,3500.0000000000005,22,all
110_110_pomper_saffran_2016_47,8,110,pomper_saffran_2016,47,white,white,target,53,49,0.5196078431372549,0.46226415094339623,1,NA,0,NA,1,1766.6666666666667,1766.6666666666667,1766.6666666666667,22,all
111_111_pomper_saffran_2016_42,9,111,pomper_saffran_2016,42,red,red,distractor,86,17,0.8349514563106796,NA,1,1,NA,515,1,2866.666666666667,2866.666666666667,2866.666666666667,17,all
111_111_pomper_saffran_2016_42,10,111,pomper_saffran_2016,42,orange,orange,target,82,18,0.82,NA,1,NA,0,NA,1,2600,2600,2600,17,all
111_111_pomper_saffran_2016_42,11,111,pomper_saffran_2016,42,yellow,yellow,neither,91,0,1,0.6132075471698113,1,NA,NA,NA,0,3033.3333333333335,3033.3333333333335,3033.3333333333335,17,all
111_111_pomper_saffran_2016_42,12,111,pomper_saffran_2016,42,white,white,target,53,44,0.5463917525773195,0.39622641509433965,2,NA,0,NA,1,883.3333333333334,800,966.6666666666667,17,all
111_111_pomper_saffran_2016_42,13,111,pomper_saffran_2016,42,black,black,distractor,68,26,0.723404255319149,0.6415094339622641,1,1,NA,340,1,2266.666666666667,2266.666666666667,2266.666666666667,17,all
111_111_pomper_saffran_2016_42,14,111,pomper_saffran_2016,42,red,red,target,79,21,0.79,NA,2,NA,0,NA,2,1316.6666666666667,666.6666666666667,1966.6666666666667,17,all
111_111_pomper_saffran_2016_42,15,111,pomper_saffran_2016,42,brown,brown,target,90,11,0.8910891089108911,0.4339622641509434,1,NA,0,NA,0,2766.666666666667,233.33333333333334,2766.666666666667,17,all
111_111_pomper_saffran_2016_42,16,111,pomper_saffran_2016,42,orange,orange,distractor,28,66,0.2978723404255319,NA,1,1,NA,390,2,600,600,600,17,all
112_112_pomper_saffran_2016_43,1,112,pomper_saffran_2016,43,orange,orange,target,106,0,1,NA,1,NA,1,NA,0,3533.3333333333335,3533.3333333333335,3533.3333333333335,18,all
112_112_pomper_saffran_2016_43,2,112,pomper_saffran_2016,43,red,red,distractor,92,11,0.8932038834951457,NA,1,1,NA,15,0,3066.666666666667,3066.666666666667,3066.666666666667,18,all
112_112_pomper_saffran_2016_43,3,112,pomper_saffran_2016,43,yellow,yellow,distractor,61,0,1,0.5754716981132075,1,1,NA,90,0,2033.3333333333335,2033.3333333333335,2033.3333333333335,18,all
112_112_pomper_saffran_2016_43,4,112,pomper_saffran_2016,43,white,white,distractor,45,33,0.5769230769230769,0.28301886792452835,1,1,NA,115,1,1500,1500,1500,18,all
112_112_pomper_saffran_2016_43,5,112,pomper_saffran_2016,43,red,red,target,97,4,0.9603960396039604,NA,1,NA,0,NA,0,3233.3333333333335,3233.3333333333335,3233.3333333333335,18,all
112_112_pomper_saffran_2016_43,6,112,pomper_saffran_2016,43,black,black,distractor,105,0,1,0.9905660377358491,1,1,NA,40,0,3500.0000000000005,3500.0000000000005,3500.0000000000005,18,all
112_112_pomper_saffran_2016_43,7,112,pomper_saffran_2016,43,orange,orange,target,96,0,1,NA,1,NA,1,NA,0,3200,3200,3200,18,all
112_112_pomper_saffran_2016_43,8,112,pomper_saffran_2016,43,brown,brown,distractor,75,15,0.8333333333333334,0.3962264150943396,1,1,NA,140,1,2500,2500,2500,18,all
113_113_pomper_saffran_2016_42,1,113,pomper_saffran_2016,42,green,green,distractor,87,16,0.8446601941747572,NA,1,1,NA,490,1,2900,2900,2900,17,all
113_113_pomper_saffran_2016_42,2,113,pomper_saffran_2016,42,blue,blue,distractor,67,13,0.8375,NA,1,1,NA,415,1,2233.3333333333335,2233.3333333333335,2233.3333333333335,17,all
113_113_pomper_saffran_2016_42,3,113,pomper_saffran_2016,42,black,black,distractor,83,20,0.8058252427184466,0.7169811320754718,1,1,NA,590,1,2766.666666666667,2766.666666666667,2766.666666666667,17,all
113_113_pomper_saffran_2016_42,4,113,pomper_saffran_2016,42,brown,brown,distractor,40,34,0.5405405405405406,-0.12264150943396224,1,1,NA,190,1,1333.3333333333335,1333.3333333333335,1333.3333333333335,17,all
113_113_pomper_saffran_2016_42,5,113,pomper_saffran_2016,42,yellow,yellow,target,77,7,0.9166666666666666,0.5377358490566038,1,NA,0,NA,0,2566.666666666667,2566.666666666667,2566.666666666667,17,all
113_113_pomper_saffran_2016_42,6,113,pomper_saffran_2016,42,green,green,neither,67,24,0.7362637362637363,NA,1,NA,NA,NA,1,2233.3333333333335,2233.3333333333335,2233.3333333333335,17,all
113_113_pomper_saffran_2016_42,7,113,pomper_saffran_2016,42,white,white,target,51,53,0.49038461538461536,0.16037735849056606,1,NA,0,NA,1,1700.0000000000002,1700.0000000000002,1700.0000000000002,17,all
113_113_pomper_saffran_2016_42,8,113,pomper_saffran_2016,42,blue,blue,target,57,41,0.5816326530612245,NA,2,NA,0,NA,2,950,600,1300,17,all
114_114_pomper_saffran_2016_42,9,114,pomper_saffran_2016,42,green,green,target,47,53,0.47,NA,1,NA,0,NA,1,1300,266.6666666666667,1300,17,all
114_114_pomper_saffran_2016_42,10,114,pomper_saffran_2016,42,blue,blue,distractor,41,63,0.3942307692307692,NA,1,0,NA,NA,1,1366.6666666666667,1366.6666666666667,1366.6666666666667,17,all
114_114_pomper_saffran_2016_42,11,114,pomper_saffran_2016,42,black,black,target,103,0,1,0.8584905660377359,1,NA,1,NA,0,3433.3333333333335,3433.3333333333335,3433.3333333333335,17,all
114_114_pomper_saffran_2016_42,12,114,pomper_saffran_2016,42,brown,brown,target,83,17,0.83,0.6415094339622642,1,NA,0,NA,1,2466.666666666667,300,2466.666666666667,17,all
114_114_pomper_saffran_2016_42,13,114,pomper_saffran_2016,42,yellow,yellow,distractor,91,12,0.883495145631068,0.8584905660377359,1,1,NA,390,1,3033.3333333333335,3033.3333333333335,3033.3333333333335,17,all
114_114_pomper_saffran_2016_42,14,114,pomper_saffran_2016,42,green,green,distractor,91,12,0.883495145631068,NA,1,1,NA,390,1,3033.3333333333335,3033.3333333333335,3033.3333333333335,17,all
114_114_pomper_saffran_2016_42,15,114,pomper_saffran_2016,42,white,white,distractor,89,15,0.8557692307692307,0.679245283018868,1,1,NA,440,1,2966.666666666667,2966.666666666667,2966.666666666667,17,all
114_114_pomper_saffran_2016_42,16,114,pomper_saffran_2016,42,blue,blue,target,80,20,0.8,NA,1,NA,0,NA,1,2366.666666666667,300,2366.666666666667,17,all
115_115_pomper_saffran_2016_42,9,115,pomper_saffran_2016,42,orange,orange,distractor,89,15,0.8557692307692307,NA,1,1,NA,440,1,2966.666666666667,2966.666666666667,2966.666666666667,17,all
115_115_pomper_saffran_2016_42,10,115,pomper_saffran_2016,42,red,red,distractor,82,21,0.7961165048543689,NA,1,1,NA,615,1,2733.3333333333335,2733.3333333333335,2733.3333333333335,17,all
115_115_pomper_saffran_2016_42,11,115,pomper_saffran_2016,42,yellow,yellow,distractor,82,21,0.7961165048543689,0.339622641509434,1,1,NA,615,1,2733.3333333333335,2733.3333333333335,2733.3333333333335,17,all
115_115_pomper_saffran_2016_42,12,115,pomper_saffran_2016,42,white,white,distractor,66,32,0.673469387755102,0.4716981132075472,1,1,NA,340,1,2200,2200,2200,17,all
115_115_pomper_saffran_2016_42,13,115,pomper_saffran_2016,42,red,red,target,106,0,1,NA,1,NA,1,NA,0,3533.3333333333335,3533.3333333333335,3533.3333333333335,17,all
115_115_pomper_saffran_2016_42,14,115,pomper_saffran_2016,42,black,black,distractor,51,46,0.5257731958762887,0.2830188679245283,1,1,NA,815,2,1700.0000000000002,1700.0000000000002,1700.0000000000002,17,all
115_115_pomper_saffran_2016_42,15,115,pomper_saffran_2016,42,orange,orange,target,67,28,0.7052631578947368,NA,1,NA,0,NA,1,2033.3333333333335,2033.3333333333335,2033.3333333333335,17,all
115_115_pomper_saffran_2016_42,16,115,pomper_saffran_2016,42,brown,brown,target,85,16,0.8415841584158416,0.5,1,NA,0,NA,1,2466.666666666667,366.6666666666667,2466.666666666667,17,all
116_116_pomper_saffran_2016_45,1,116,pomper_saffran_2016,45,red,red,target,91,9,0.91,NA,1,NA,0,NA,0,2900,2900,2900,20,all
116_116_pomper_saffran_2016_45,2,116,pomper_saffran_2016,45,orange,orange,distractor,96,1,0.9896907216494846,NA,1,1,NA,115,0,3200,3200,3200,20,all
116_116_pomper_saffran_2016_45,3,116,pomper_saffran_2016,45,yellow,yellow,distractor,101,3,0.9711538461538461,0.37735849056603776,1,1,NA,140,0,3366.666666666667,3366.666666666667,3366.666666666667,20,all
116_116_pomper_saffran_2016_45,4,116,pomper_saffran_2016,45,white,white,distractor,101,0,1,0.6415094339622642,1,1,NA,140,0,3366.666666666667,3366.666666666667,3366.666666666667,20,all
116_116_pomper_saffran_2016_45,5,116,pomper_saffran_2016,45,black,black,distractor,43,61,0.41346153846153844,0.37735849056603776,1,1,NA,15,1,1433.3333333333335,1433.3333333333335,1433.3333333333335,20,all
116_116_pomper_saffran_2016_45,6,116,pomper_saffran_2016,45,red,red,target,106,0,1,NA,1,NA,1,NA,0,3533.3333333333335,3533.3333333333335,3533.3333333333335,20,all
116_116_pomper_saffran_2016_45,7,116,pomper_saffran_2016,45,brown,brown,distractor,61,33,0.648936170212766,0.5754716981132075,2,1,NA,490,3,1016.6666666666667,1533.3333333333335,1533.3333333333335,20,all
116_116_pomper_saffran_2016_45,8,116,pomper_saffran_2016,45,orange,orange,target,67,35,0.6568627450980392,NA,1,NA,1,NA,1,2233.3333333333335,2233.3333333333335,2233.3333333333335,20,all
117_117_pomper_saffran_2016_43,9,117,pomper_saffran_2016,43,blue,blue,distractor,99,4,0.9611650485436893,NA,1,1,NA,190,0,3300.0000000000005,3300.0000000000005,3300.0000000000005,18,all
117_117_pomper_saffran_2016_43,10,117,pomper_saffran_2016,43,green,green,distractor,102,1,0.9902912621359223,NA,1,1,NA,115,0,3400.0000000000005,3400.0000000000005,3400.0000000000005,18,all
117_117_pomper_saffran_2016_43,11,117,pomper_saffran_2016,43,black,black,distractor,93,11,0.8942307692307693,0.8773584905660378,1,1,NA,340,0,3100,3100,3100,18,all
117_117_pomper_saffran_2016_43,12,117,pomper_saffran_2016,43,brown,brown,distractor,99,4,0.9611650485436893,0.8867924528301887,1,1,NA,190,0,3300.0000000000005,3300.0000000000005,3300.0000000000005,18,all
117_117_pomper_saffran_2016_43,13,117,pomper_saffran_2016,43,green,green,target,86,17,0.8349514563106796,NA,1,NA,0,NA,1,2866.666666666667,2866.666666666667,2866.666666666667,18,all
117_117_pomper_saffran_2016_43,14,117,pomper_saffran_2016,43,yellow,yellow,target,106,0,1,0.8962264150943396,1,NA,1,NA,0,3533.3333333333335,3533.3333333333335,3533.3333333333335,18,all
117_117_pomper_saffran_2016_43,15,117,pomper_saffran_2016,43,blue,blue,target,106,0,1,NA,1,NA,1,NA,0,3533.3333333333335,3533.3333333333335,3533.3333333333335,18,all
117_117_pomper_saffran_2016_43,16,117,pomper_saffran_2016,43,white,white,target,68,5,0.9315068493150684,0.6037735849056604,1,NA,1,NA,0,2266.666666666667,2266.666666666667,2266.666666666667,18,all
118_118_pomper_saffran_2016_42,9,118,pomper_saffran_2016,42,red,red,target,79,19,0.8061224489795918,NA,2,NA,0,NA,2,1316.6666666666667,666.6666666666667,1966.6666666666667,17,all
118_118_pomper_saffran_2016_42,10,118,pomper_saffran_2016,42,orange,orange,distractor,83,17,0.83,NA,2,1,NA,15,2,1383.3333333333335,1633.3333333333335,1633.3333333333335,17,all
118_118_pomper_saffran_2016_42,11,118,pomper_saffran_2016,42,yellow,yellow,neither,65,31,0.6770833333333334,0.6132075471698113,1,NA,NA,NA,1,1833.3333333333335,333.33333333333337,1833.3333333333335,17,all
118_118_pomper_saffran_2016_42,12,118,pomper_saffran_2016,42,white,white,target,42,55,0.4329896907216495,0.39622641509433965,1,NA,0,NA,1,1033.3333333333335,1033.3333333333335,1033.3333333333335,17,all
118_118_pomper_saffran_2016_42,13,118,pomper_saffran_2016,42,black,black,distractor,106,0,1,0.7075471698113207,1,1,NA,15,0,3533.3333333333335,3533.3333333333335,3533.3333333333335,17,all
118_118_pomper_saffran_2016_42,14,118,pomper_saffran_2016,42,red,red,distractor,93,9,0.9117647058823529,NA,1,1,NA,340,0,3100,3100,3100,17,all
118_118_pomper_saffran_2016_42,15,118,pomper_saffran_2016,42,brown,brown,target,106,0,1,0.4811320754716981,1,NA,1,NA,0,3533.3333333333335,3533.3333333333335,3533.3333333333335,17,all
118_118_pomper_saffran_2016_42,16,118,pomper_saffran_2016,42,orange,orange,distractor,36,20,0.6428571428571429,NA,2,1,NA,15,2,600,766.6666666666667,766.6666666666667,17,all
119_119_pomper_saffran_2016_43,2,119,pomper_saffran_2016,43,black,black,target,105,0,1,NA,1,NA,1,NA,0,3500.0000000000005,3500.0000000000005,3500.0000000000005,18,all
119_119_pomper_saffran_2016_43,3,119,pomper_saffran_2016,43,red,red,distractor,50,50,0.5,0.4056603773584906,1,1,NA,290,1,1666.6666666666667,1666.6666666666667,1666.6666666666667,18,all
119_119_pomper_saffran_2016_43,4,119,pomper_saffran_2016,43,blue,blue,distractor,94,9,0.912621359223301,NA,1,1,NA,315,0,3133.3333333333335,3133.3333333333335,3133.3333333333335,18,all
119_119_pomper_saffran_2016_43,5,119,pomper_saffran_2016,43,brown,brown,distractor,90,13,0.8737864077669902,NA,1,1,NA,415,1,3000,3000,3000,18,all
119_119_pomper_saffran_2016_43,6,119,pomper_saffran_2016,43,blue,blue,target,106,0,1,NA,1,NA,1,NA,0,3533.3333333333335,3533.3333333333335,3533.3333333333335,18,all
119_119_pomper_saffran_2016_43,7,119,pomper_saffran_2016,43,black,black,target,106,0,1,NA,1,NA,1,NA,0,3533.3333333333335,3533.3333333333335,3533.3333333333335,18,all
119_119_pomper_saffran_2016_43,8,119,pomper_saffran_2016,43,green,green,distractor,97,7,0.9326923076923077,0.44339622641509435,1,1,NA,240,0,3233.3333333333335,3233.3333333333335,3233.3333333333335,18,all
120_120_pomper_saffran_2016_42,9,120,pomper_saffran_2016,42,yellow,yellow,distractor,71,8,0.8987341772151899,NA,2,1,NA,290,0,1183.3333333333335,733.3333333333334,1633.3333333333335,17,all
120_120_pomper_saffran_2016_42,10,120,pomper_saffran_2016,42,brown,brown,distractor,51,51,0.5,0.169811320754717,1,1,NA,15,1,1700.0000000000002,1700.0000000000002,1700.0000000000002,17,all
120_120_pomper_saffran_2016_42,11,120,pomper_saffran_2016,42,red,red,target,24,71,0.25263157894736843,-0.40566037735849053,1,NA,0,NA,1,500.00000000000006,500.00000000000006,500.00000000000006,17,all
120_120_pomper_saffran_2016_42,12,120,pomper_saffran_2016,42,orange,orange,target,51,7,0.8793103448275862,NA,1,NA,0,NA,0,1466.6666666666667,1466.6666666666667,1466.6666666666667,17,all
120_120_pomper_saffran_2016_42,13,120,pomper_saffran_2016,42,white,white,distractor,62,33,0.6526315789473685,0.10377358490566035,1,1,NA,990,1,2066.666666666667,2066.666666666667,2066.666666666667,17,all
120_120_pomper_saffran_2016_42,15,120,pomper_saffran_2016,42,green,green,distractor,32,67,0.32323232323232326,-0.36792452830188677,1,1,NA,640,2,1066.6666666666667,1066.6666666666667,1066.6666666666667,17,all
120_120_pomper_saffran_2016_42,16,120,pomper_saffran_2016,42,yellow,yellow,distractor,22,55,0.2857142857142857,NA,1,0,NA,NA,1,733.3333333333334,733.3333333333334,733.3333333333334,17,all
121_121_pomper_saffran_2016_42,1,121,pomper_saffran_2016,42,green,green,distractor,101,3,0.9711538461538461,NA,1,1,NA,140,0,3366.666666666667,3366.666666666667,3366.666666666667,17,all
121_121_pomper_saffran_2016_42,2,121,pomper_saffran_2016,42,blue,blue,target,84,13,0.865979381443299,NA,1,NA,1,NA,1,2800,2800,2800,17,all
121_121_pomper_saffran_2016_42,3,121,pomper_saffran_2016,42,black,black,distractor,93,11,0.8942307692307693,0.8773584905660378,1,1,NA,340,0,3100,3100,3100,17,all
121_121_pomper_saffran_2016_42,4,121,pomper_saffran_2016,42,brown,brown,distractor,102,1,0.9902912621359223,0.8113207547169812,1,1,NA,115,0,3400.0000000000005,3400.0000000000005,3400.0000000000005,17,all
121_121_pomper_saffran_2016_42,5,121,pomper_saffran_2016,42,yellow,yellow,target,106,0,1,0.8962264150943396,1,NA,1,NA,0,3533.3333333333335,3533.3333333333335,3533.3333333333335,17,all
121_121_pomper_saffran_2016_42,6,121,pomper_saffran_2016,42,green,green,distractor,95,8,0.9223300970873787,NA,1,1,NA,290,0,3166.666666666667,3166.666666666667,3166.666666666667,17,all
121_121_pomper_saffran_2016_42,7,121,pomper_saffran_2016,42,white,white,target,83,16,0.8383838383838383,0.7735849056603774,1,NA,0,NA,1,2500,266.6666666666667,2500,17,all
121_121_pomper_saffran_2016_42,8,121,pomper_saffran_2016,42,blue,blue,target,72,25,0.7422680412371134,NA,1,NA,0,NA,1,2133.3333333333335,266.6666666666667,2133.3333333333335,17,all
122_122_pomper_saffran_2016_44,1,122,pomper_saffran_2016,44,brown,brown,distractor,69,23,0.75,0.5943396226415094,2,1,NA,240,0,1150,666.6666666666667,1633.3333333333335,19,all
122_122_pomper_saffran_2016_44,2,122,pomper_saffran_2016,44,yellow,yellow,target,106,0,1,NA,1,NA,1,NA,0,3533.3333333333335,3533.3333333333335,3533.3333333333335,19,all
122_122_pomper_saffran_2016_44,3,122,pomper_saffran_2016,44,green,green,distractor,56,43,0.5656565656565656,0.5283018867924528,1,1,NA,715,2,1866.6666666666667,1866.6666666666667,1866.6666666666667,19,all
122_122_pomper_saffran_2016_44,4,122,pomper_saffran_2016,44,orange,orange,target,83,17,0.83,NA,1,NA,0,NA,1,2633.3333333333335,2633.3333333333335,2633.3333333333335,19,all
122_122_pomper_saffran_2016_44,5,122,pomper_saffran_2016,44,white,white,target,95,6,0.9405940594059405,0.679245283018868,1,NA,1,NA,0,3166.666666666667,3166.666666666667,3166.666666666667,19,all
122_122_pomper_saffran_2016_44,6,122,pomper_saffran_2016,44,orange,orange,distractor,38,64,0.37254901960784315,NA,1,1,NA,1040,2,1266.6666666666667,1266.6666666666667,1266.6666666666667,19,all
122_122_pomper_saffran_2016_44,7,122,pomper_saffran_2016,44,yellow,yellow,distractor,82,20,0.803921568627451,NA,1,1,NA,615,1,2733.3333333333335,2733.3333333333335,2733.3333333333335,19,all
122_122_pomper_saffran_2016_44,8,122,pomper_saffran_2016,44,red,red,target,106,0,1,0.5943396226415094,1,NA,1,NA,0,3533.3333333333335,3533.3333333333335,3533.3333333333335,19,all
123_123_pomper_saffran_2016_43,9,123,pomper_saffran_2016,43,black,black,distractor,83,20,0.8058252427184466,NA,1,1,NA,590,1,2766.666666666667,2766.666666666667,2766.666666666667,18,all
123_123_pomper_saffran_2016_43,10,123,pomper_saffran_2016,43,white,white,target,74,27,0.7326732673267327,0.5188679245283019,1,NA,0,NA,1,2166.666666666667,300,2166.666666666667,18,all
123_123_pomper_saffran_2016_43,11,123,pomper_saffran_2016,43,green,green,target,68,32,0.68,0.4150943396226415,1,NA,1,NA,1,2100,2100,2100,18,all
123_123_pomper_saffran_2016_43,12,123,pomper_saffran_2016,43,blue,blue,distractor,74,29,0.7184466019417476,NA,1,1,NA,815,1,2466.666666666667,2466.666666666667,2466.666666666667,18,all
123_123_pomper_saffran_2016_43,13,123,pomper_saffran_2016,43,brown,brown,target,82,19,0.8118811881188119,0.5188679245283019,2,NA,0,NA,2,1366.6666666666667,1566.6666666666667,1566.6666666666667,18,all
123_123_pomper_saffran_2016_43,14,123,pomper_saffran_2016,43,blue,blue,target,63,35,0.6428571428571429,NA,1,NA,0,NA,1,2100,2100,2100,18,all
123_123_pomper_saffran_2016_43,15,123,pomper_saffran_2016,43,red,red,distractor,79,24,0.7669902912621359,0.4433962264150943,1,1,NA,690,1,2633.3333333333335,2633.3333333333335,2633.3333333333335,18,all
123_123_pomper_saffran_2016_43,16,123,pomper_saffran_2016,43,black,black,target,106,0,1,NA,1,NA,1,NA,0,3533.3333333333335,3533.3333333333335,3533.3333333333335,18,all
124_124_pomper_saffran_2016_42,1,124,pomper_saffran_2016,42,yellow,yellow,neither,55,25,0.6875,NA,2,NA,NA,NA,2,916.6666666666667,800,1033.3333333333335,17,all
124_124_pomper_saffran_2016_42,2,124,pomper_saffran_2016,42,brown,brown,distractor,59,37,0.6145833333333334,NA,2,1,NA,190,2,983.3333333333335,1133.3333333333335,1133.3333333333335,17,all
124_124_pomper_saffran_2016_42,3,124,pomper_saffran_2016,42,red,red,distractor,62,7,0.8985507246376812,0.5849056603773585,2,1,NA,240,0,1033.3333333333335,1333.3333333333335,1333.3333333333335,17,all
124_124_pomper_saffran_2016_42,4,124,pomper_saffran_2016,42,orange,orange,target,48,42,0.5333333333333333,NA,2,NA,0,NA,3,766.6666666666667,533.3333333333334,1000.0000000000001,17,all
124_124_pomper_saffran_2016_42,7,124,pomper_saffran_2016,42,green,green,target,93,0,1,0.8113207547169812,2,NA,1,NA,0,1550,1600,1600,17,all
124_124_pomper_saffran_2016_42,8,124,pomper_saffran_2016,42,yellow,yellow,distractor,94,9,0.912621359223301,NA,1,1,NA,315,0,3133.3333333333335,3133.3333333333335,3133.3333333333335,17,all
125_125_pomper_saffran_2016_43,9,125,pomper_saffran_2016,43,white,white,target,106,0,1,1,1,NA,1,NA,0,3533.3333333333335,3533.3333333333335,3533.3333333333335,18,all
125_125_pomper_saffran_2016_43,10,125,pomper_saffran_2016,43,black,black,distractor,77,27,0.7403846153846154,NA,1,1,NA,740,1,2566.666666666667,2566.666666666667,2566.666666666667,18,all
125_125_pomper_saffran_2016_43,11,125,pomper_saffran_2016,43,red,red,target,106,0,1,0.9339622641509434,1,NA,1,NA,0,3533.3333333333335,3533.3333333333335,3533.3333333333335,18,all
125_125_pomper_saffran_2016_43,12,125,pomper_saffran_2016,43,blue,blue,distractor,101,3,0.9711538461538461,NA,1,1,NA,140,0,3366.666666666667,3366.666666666667,3366.666666666667,18,all
125_125_pomper_saffran_2016_43,13,125,pomper_saffran_2016,43,brown,brown,distractor,103,0,1,0.9716981132075472,1,1,NA,90,0,3433.3333333333335,3433.3333333333335,3433.3333333333335,18,all
125_125_pomper_saffran_2016_43,14,125,pomper_saffran_2016,43,blue,blue,distractor,102,0,1,NA,1,1,NA,115,0,3400.0000000000005,3400.0000000000005,3400.0000000000005,18,all
125_125_pomper_saffran_2016_43,15,125,pomper_saffran_2016,43,black,black,target,106,0,1,NA,1,NA,1,NA,0,3533.3333333333335,3533.3333333333335,3533.3333333333335,18,all
125_125_pomper_saffran_2016_43,16,125,pomper_saffran_2016,43,green,green,distractor,97,7,0.9326923076923077,0.9150943396226415,1,1,NA,240,0,3233.3333333333335,3233.3333333333335,3233.3333333333335,18,all
126_126_pomper_saffran_2016_44,1,126,pomper_saffran_2016,44,black,black,distractor,55,45,0.55,NA,2,1,NA,440,3,916.6666666666667,1400,1400,19,all
126_126_pomper_saffran_2016_44,2,126,pomper_saffran_2016,44,white,white,distractor,89,15,0.8557692307692307,0.7264150943396227,1,1,NA,440,1,2966.666666666667,2966.666666666667,2966.666666666667,19,all
126_126_pomper_saffran_2016_44,3,126,pomper_saffran_2016,44,green,green,target,85,13,0.8673469387755102,0.33018867924528306,2,NA,0,NA,2,1416.6666666666667,1300,1533.3333333333335,19,all
126_126_pomper_saffran_2016_44,4,126,pomper_saffran_2016,44,blue,blue,distractor,97,7,0.9326923076923077,NA,1,1,NA,240,0,3233.3333333333335,3233.3333333333335,3233.3333333333335,19,all
126_126_pomper_saffran_2016_44,5,126,pomper_saffran_2016,44,brown,brown,target,89,12,0.8811881188118812,0.6981132075471699,1,NA,0,NA,1,2600,366.6666666666667,2600,19,all
126_126_pomper_saffran_2016_44,6,126,pomper_saffran_2016,44,blue,blue,target,106,0,1,NA,1,NA,1,NA,0,3533.3333333333335,3533.3333333333335,3533.3333333333335,19,all
126_126_pomper_saffran_2016_44,7,126,pomper_saffran_2016,44,red,red,distractor,49,50,0.494949494949495,0.339622641509434,1,1,NA,515,2,1633.3333333333335,1633.3333333333335,1633.3333333333335,19,all
126_126_pomper_saffran_2016_44,8,126,pomper_saffran_2016,44,black,black,target,64,39,0.6213592233009708,NA,1,NA,1,NA,1,2133.3333333333335,2133.3333333333335,2133.3333333333335,19,all
127_127_pomper_saffran_2016_41,9,127,pomper_saffran_2016,41,orange,orange,distractor,77,25,0.7549019607843137,NA,1,1,NA,740,1,2566.666666666667,2566.666666666667,2566.666666666667,16,all
127_127_pomper_saffran_2016_41,10,127,pomper_saffran_2016,41,red,red,target,74,26,0.74,NA,2,NA,0,NA,2,1233.3333333333335,533.3333333333334,1933.3333333333335,16,all
127_127_pomper_saffran_2016_41,11,127,pomper_saffran_2016,41,yellow,yellow,distractor,98,5,0.9514563106796117,0.8018867924528302,1,1,NA,215,0,3266.666666666667,3266.666666666667,3266.666666666667,16,all
127_127_pomper_saffran_2016_41,12,127,pomper_saffran_2016,41,white,white,distractor,79,23,0.7745098039215687,0.5094339622641508,1,1,NA,690,1,2633.3333333333335,2633.3333333333335,2633.3333333333335,16,all
127_127_pomper_saffran_2016_41,13,127,pomper_saffran_2016,41,red,red,distractor,90,15,0.8571428571428571,NA,1,1,NA,415,1,3000,3000,3000,16,all
127_127_pomper_saffran_2016_41,14,127,pomper_saffran_2016,41,black,black,distractor,87,13,0.87,0.7735849056603774,1,1,NA,415,1,2900,2900,2900,16,all
127_127_pomper_saffran_2016_41,15,127,pomper_saffran_2016,41,orange,orange,distractor,55,42,0.5670103092783505,NA,1,1,NA,840,2,1833.3333333333335,1833.3333333333335,1833.3333333333335,16,all
127_127_pomper_saffran_2016_41,16,127,pomper_saffran_2016,41,brown,brown,distractor,78,25,0.7572815533980582,0.5188679245283019,1,1,NA,715,1,2600,2600,2600,16,all
128_128_pomper_saffran_2016_47,9,128,pomper_saffran_2016,47,brown,brown,target,66,33,0.6666666666666666,0.17924528301886788,2,NA,0,NA,2,1100,666.6666666666667,1533.3333333333335,22,all
128_128_pomper_saffran_2016_47,10,128,pomper_saffran_2016,47,yellow,yellow,target,74,25,0.7474747474747475,NA,2,NA,0,NA,2,1233.3333333333335,1466.6666666666667,1466.6666666666667,22,all
128_128_pomper_saffran_2016_47,11,128,pomper_saffran_2016,47,green,green,distractor,90,13,0.8737864077669902,0.7641509433962265,1,1,NA,415,1,3000,3000,3000,22,all
128_128_pomper_saffran_2016_47,12,128,pomper_saffran_2016,47,orange,orange,target,106,0,1,NA,1,NA,1,NA,0,3533.3333333333335,3533.3333333333335,3533.3333333333335,22,all
128_128_pomper_saffran_2016_47,13,128,pomper_saffran_2016,47,white,white,target,53,47,0.53,0.18867924528301888,1,NA,0,NA,1,1766.6666666666667,1766.6666666666667,1766.6666666666667,22,all
128_128_pomper_saffran_2016_47,14,128,pomper_saffran_2016,47,orange,orange,distractor,98,5,0.9514563106796117,NA,1,1,NA,215,0,3266.666666666667,3266.666666666667,3266.666666666667,22,all
128_128_pomper_saffran_2016_47,15,128,pomper_saffran_2016,47,yellow,yellow,target,76,24,0.76,NA,1,NA,0,NA,1,2300,233.33333333333334,2300,22,all
128_128_pomper_saffran_2016_47,16,128,pomper_saffran_2016,47,red,red,distractor,94,9,0.912621359223301,0.7641509433962265,1,1,NA,315,0,3133.3333333333335,3133.3333333333335,3133.3333333333335,22,all
129_129_pomper_saffran_2016_45,1,129,pomper_saffran_2016,45,orange,orange,distractor,87,16,0.8446601941747572,NA,1,1,NA,490,1,2900,2900,2900,20,all
129_129_pomper_saffran_2016_45,2,129,pomper_saffran_2016,45,red,red,distractor,67,4,0.9436619718309859,NA,2,1,NA,215,0,1116.6666666666667,1333.3333333333335,1333.3333333333335,20,all
129_129_pomper_saffran_2016_45,3,129,pomper_saffran_2016,45,yellow,yellow,target,73,25,0.7448979591836735,0.6132075471698113,1,NA,0,NA,1,2300,2300,2300,20,all
129_129_pomper_saffran_2016_45,4,129,pomper_saffran_2016,45,white,white,target,78,0,1,0.48113207547169806,2,NA,1,NA,0,1300,1633.3333333333335,1633.3333333333335,20,all
129_129_pomper_saffran_2016_45,5,129,pomper_saffran_2016,45,red,red,distractor,97,7,0.9326923076923077,NA,1,1,NA,240,0,3233.3333333333335,3233.3333333333335,3233.3333333333335,20,all
129_129_pomper_saffran_2016_45,6,129,pomper_saffran_2016,45,black,black,distractor,95,8,0.9223300970873787,0.6603773584905661,1,1,NA,290,0,3166.666666666667,3166.666666666667,3166.666666666667,20,all
129_129_pomper_saffran_2016_45,7,129,pomper_saffran_2016,45,orange,orange,target,59,0,1,NA,1,NA,1,NA,0,1966.6666666666667,1966.6666666666667,1966.6666666666667,20,all
129_129_pomper_saffran_2016_45,8,129,pomper_saffran_2016,45,brown,brown,target,39,27,0.5909090909090909,0.36792452830188677,1,NA,0,NA,1,1300,1300,1300,20,all
130_130_pomper_saffran_2016_44,10,130,pomper_saffran_2016,44,blue,blue,distractor,79,24,0.7669902912621359,NA,1,1,NA,690,1,2633.3333333333335,2633.3333333333335,2633.3333333333335,19,all
130_130_pomper_saffran_2016_44,11,130,pomper_saffran_2016,44,black,black,distractor,62,41,0.6019417475728155,0.5849056603773585,1,1,NA,1115,1,2066.666666666667,2066.666666666667,2066.666666666667,19,all
130_130_pomper_saffran_2016_44,12,130,pomper_saffran_2016,44,brown,brown,target,106,0,1,1,1,NA,1,NA,0,3533.3333333333335,3533.3333333333335,3533.3333333333335,19,all
130_130_pomper_saffran_2016_44,13,130,pomper_saffran_2016,44,yellow,yellow,target,106,0,1,0.6132075471698113,1,NA,1,NA,0,3533.3333333333335,3533.3333333333335,3533.3333333333335,19,all
130_130_pomper_saffran_2016_44,14,130,pomper_saffran_2016,44,green,green,target,75,27,0.7352941176470589,NA,2,NA,0,NA,2,1250,966.6666666666667,1533.3333333333335,19,all
130_130_pomper_saffran_2016_44,15,130,pomper_saffran_2016,44,white,white,distractor,103,0,1,0.9716981132075472,1,1,NA,90,0,3433.3333333333335,3433.3333333333335,3433.3333333333335,19,all
130_130_pomper_saffran_2016_44,16,130,pomper_saffran_2016,44,blue,blue,target,105,0,1,NA,1,NA,1,NA,0,3500.0000000000005,3500.0000000000005,3500.0000000000005,19,all
131_131_pomper_saffran_2016_42,1,131,pomper_saffran_2016,42,blue,blue,distractor,86,16,0.8431372549019608,NA,1,1,NA,515,1,2866.666666666667,2866.666666666667,2866.666666666667,17,all
131_131_pomper_saffran_2016_42,2,131,pomper_saffran_2016,42,green,green,target,106,0,1,NA,1,NA,1,NA,0,3533.3333333333335,3533.3333333333335,3533.3333333333335,17,all
131_131_pomper_saffran_2016_42,3,131,pomper_saffran_2016,42,black,black,target,106,0,1,1,1,NA,1,NA,0,3533.3333333333335,3533.3333333333335,3533.3333333333335,17,all
131_131_pomper_saffran_2016_42,4,131,pomper_saffran_2016,42,brown,brown,distractor,57,8,0.8769230769230769,0.4716981132075472,2,1,NA,290,0,950,1266.6666666666667,1266.6666666666667,17,all
131_131_pomper_saffran_2016_42,5,131,pomper_saffran_2016,42,green,green,distractor,86,3,0.9662921348314607,NA,2,1,NA,190,0,1433.3333333333335,2133.3333333333335,2133.3333333333335,17,all
131_131_pomper_saffran_2016_42,6,131,pomper_saffran_2016,42,yellow,yellow,target,106,0,1,1,1,NA,1,NA,0,3533.3333333333335,3533.3333333333335,3533.3333333333335,17,all
131_131_pomper_saffran_2016_42,7,131,pomper_saffran_2016,42,blue,blue,distractor,101,3,0.9711538461538461,NA,1,1,NA,140,0,3366.666666666667,3366.666666666667,3366.666666666667,17,all
131_131_pomper_saffran_2016_42,8,131,pomper_saffran_2016,42,white,white,target,95,7,0.9313725490196079,0.8207547169811321,1,NA,1,NA,0,3166.666666666667,3166.666666666667,3166.666666666667,17,all
132_132_pomper_saffran_2016_41,9,132,pomper_saffran_2016,41,red,red,distractor,83,20,0.8058252427184466,NA,1,1,NA,590,1,2766.666666666667,2766.666666666667,2766.666666666667,16,all
132_132_pomper_saffran_2016_41,10,132,pomper_saffran_2016,41,orange,orange,target,106,0,1,NA,1,NA,1,NA,0,3533.3333333333335,3533.3333333333335,3533.3333333333335,16,all
132_132_pomper_saffran_2016_41,11,132,pomper_saffran_2016,41,yellow,yellow,target,106,0,1,0.9622641509433962,1,NA,1,NA,0,3533.3333333333335,3533.3333333333335,3533.3333333333335,16,all
132_132_pomper_saffran_2016_41,12,132,pomper_saffran_2016,41,white,white,target,75,25,0.75,0.7075471698113207,1,NA,0,NA,1,2366.666666666667,2366.666666666667,2366.666666666667,16,all
132_132_pomper_saffran_2016_41,13,132,pomper_saffran_2016,41,black,black,distractor,97,4,0.9603960396039604,0.9150943396226415,1,1,NA,240,0,3233.3333333333335,3233.3333333333335,3233.3333333333335,16,all
132_132_pomper_saffran_2016_41,14,132,pomper_saffran_2016,41,red,red,distractor,48,48,0.5,NA,2,1,NA,115,2,800.0000000000001,566.6666666666667,1033.3333333333335,16,all
132_132_pomper_saffran_2016_41,15,132,pomper_saffran_2016,41,brown,brown,distractor,104,0,1,0.7452830188679245,1,1,NA,40,0,3466.666666666667,3466.666666666667,3466.666666666667,16,all
132_132_pomper_saffran_2016_41,16,132,pomper_saffran_2016,41,orange,orange,distractor,98,5,0.9514563106796117,NA,1,1,NA,215,0,3266.666666666667,3266.666666666667,3266.666666666667,16,all
133_133_pomper_saffran_2016_45,1,133,pomper_saffran_2016,45,green,green,distractor,77,19,0.8020833333333334,NA,2,1,NA,190,2,1283.3333333333335,1133.3333333333335,1433.3333333333335,20,all
133_133_pomper_saffran_2016_45,2,133,pomper_saffran_2016,45,blue,blue,neither,36,23,0.6101694915254238,NA,1,NA,NA,NA,1,933.3333333333334,266.6666666666667,933.3333333333334,20,all
133_133_pomper_saffran_2016_45,3,133,pomper_saffran_2016,45,black,black,distractor,62,37,0.6262626262626263,NA,2,1,NA,115,2,1033.3333333333335,966.6666666666667,1100,20,all
133_133_pomper_saffran_2016_45,4,133,pomper_saffran_2016,45,brown,brown,target,84,18,0.8235294117647058,-0.2075471698113207,1,NA,0,NA,1,2566.666666666667,233.33333333333334,2566.666666666667,20,all
133_133_pomper_saffran_2016_45,6,133,pomper_saffran_2016,45,green,green,target,78,18,0.8125,NA,1,NA,1,NA,1,2400,2400,2400,20,all
133_133_pomper_saffran_2016_45,7,133,pomper_saffran_2016,45,white,white,distractor,0,106,0,-0.16981132075471697,NA,0,NA,NA,0,NA,NA,NA,20,all
133_133_pomper_saffran_2016_45,8,133,pomper_saffran_2016,45,blue,blue,neither,60,12,0.8333333333333334,NA,1,NA,NA,NA,1,2000.0000000000002,2000.0000000000002,2000.0000000000002,20,all
134_134_pomper_saffran_2016_44,9,134,pomper_saffran_2016,44,orange,orange,distractor,85,19,0.8173076923076923,NA,1,1,NA,540,1,2833.3333333333335,2833.3333333333335,2833.3333333333335,19,all
134_134_pomper_saffran_2016_44,10,134,pomper_saffran_2016,44,red,red,distractor,65,30,0.6842105263157895,NA,1,1,NA,590,1,2166.666666666667,2166.666666666667,2166.666666666667,19,all
134_134_pomper_saffran_2016_44,11,134,pomper_saffran_2016,44,yellow,yellow,neither,84,8,0.9130434782608695,0.6509433962264152,1,NA,NA,NA,0,2800,2800,2800,19,all
134_134_pomper_saffran_2016_44,12,134,pomper_saffran_2016,44,white,white,neither,76,24,0.76,0.4150943396226415,1,NA,NA,NA,1,2200,333.33333333333337,2200,19,all
134_134_pomper_saffran_2016_44,13,134,pomper_saffran_2016,44,red,red,target,55,49,0.5288461538461539,NA,1,NA,0,NA,1,1833.3333333333335,1833.3333333333335,1833.3333333333335,19,all
134_134_pomper_saffran_2016_44,14,134,pomper_saffran_2016,44,black,black,distractor,89,15,0.8557692307692307,0.7641509433962265,1,1,NA,440,1,2966.666666666667,2966.666666666667,2966.666666666667,19,all
134_134_pomper_saffran_2016_44,15,134,pomper_saffran_2016,44,orange,orange,distractor,79,24,0.7669902912621359,NA,1,1,NA,690,1,2633.3333333333335,2633.3333333333335,2633.3333333333335,19,all
134_134_pomper_saffran_2016_44,16,134,pomper_saffran_2016,44,brown,brown,target,67,32,0.6767676767676768,0.40566037735849053,2,NA,0,NA,2,1116.6666666666667,1233.3333333333335,1233.3333333333335,19,all
135_135_pomper_saffran_2016_46,1,135,pomper_saffran_2016,46,red,red,target,79,0,1,NA,2,NA,1,NA,0,1316.6666666666667,2133.3333333333335,2133.3333333333335,21,all
135_135_pomper_saffran_2016_46,3,135,pomper_saffran_2016,46,yellow,yellow,distractor,93,11,0.8942307692307693,0.6603773584905661,1,1,NA,340,0,3100,3100,3100,21,all
135_135_pomper_saffran_2016_46,4,135,pomper_saffran_2016,46,white,white,target,55,0,1,0.169811320754717,1,NA,1,NA,0,1500,1500,1500,21,all
135_135_pomper_saffran_2016_46,5,135,pomper_saffran_2016,46,black,black,distractor,75,23,0.7653061224489796,0.6037735849056604,2,1,NA,390,1,1250,1266.6666666666667,1266.6666666666667,21,all
135_135_pomper_saffran_2016_46,6,135,pomper_saffran_2016,46,red,red,neither,52,45,0.5360824742268041,NA,1,NA,NA,NA,1,1733.3333333333335,1733.3333333333335,1733.3333333333335,21,all
135_135_pomper_saffran_2016_46,7,135,pomper_saffran_2016,46,brown,brown,target,61,37,0.6224489795918368,0.5754716981132075,2,NA,0,NA,2,1016.6666666666667,800,1233.3333333333335,21,all
135_135_pomper_saffran_2016_46,8,135,pomper_saffran_2016,46,orange,orange,neither,59,36,0.6210526315789474,NA,1,NA,NA,NA,1,1733.3333333333335,1733.3333333333335,1733.3333333333335,21,all
136_136_pomper_saffran_2016_42,1,136,pomper_saffran_2016,42,red,red,target,82,16,0.8367346938775511,NA,2,NA,0,NA,2,1366.6666666666667,800,1933.3333333333335,17,all
136_136_pomper_saffran_2016_42,2,136,pomper_saffran_2016,42,orange,orange,target,92,10,0.9019607843137255,NA,1,NA,1,NA,0,3066.666666666667,3066.666666666667,3066.666666666667,17,all
136_136_pomper_saffran_2016_42,3,136,pomper_saffran_2016,42,yellow,yellow,target,62,38,0.62,0.36792452830188677,2,NA,0,NA,2,1033.3333333333333,1600,1600,17,all
136_136_pomper_saffran_2016_42,4,136,pomper_saffran_2016,42,white,white,distractor,105,0,1,0.6415094339622642,1,1,NA,40,0,3500.0000000000005,3500.0000000000005,3500.0000000000005,17,all
136_136_pomper_saffran_2016_42,5,136,pomper_saffran_2016,42,black,black,target,70,23,0.7526881720430108,0.3018867924528302,2,NA,0,NA,2,1166.6666666666667,1200,1200,17,all
136_136_pomper_saffran_2016_42,6,136,pomper_saffran_2016,42,red,red,distractor,97,5,0.9509803921568627,NA,1,1,NA,240,0,3233.3333333333335,3233.3333333333335,3233.3333333333335,17,all
136_136_pomper_saffran_2016_42,7,136,pomper_saffran_2016,42,brown,brown,distractor,64,37,0.6336633663366337,0.6037735849056604,1,1,NA,490,2,2133.3333333333335,2133.3333333333335,2133.3333333333335,17,all
136_136_pomper_saffran_2016_42,8,136,pomper_saffran_2016,42,orange,orange,distractor,43,50,0.46236559139784944,NA,2,1,NA,240,2,716.6666666666667,933.3333333333334,933.3333333333334,17,all
137_137_pomper_saffran_2016_45,9,137,pomper_saffran_2016,45,blue,blue,target,106,0,1,NA,1,NA,1,NA,0,3533.3333333333335,3533.3333333333335,3533.3333333333335,20,all
137_137_pomper_saffran_2016_45,10,137,pomper_saffran_2016,45,green,green,distractor,55,41,0.5729166666666666,NA,1,1,NA,1115,1,1833.3333333333335,1833.3333333333335,1833.3333333333335,20,all
137_137_pomper_saffran_2016_45,13,137,pomper_saffran_2016,45,green,green,distractor,87,15,0.8529411764705882,NA,1,1,NA,490,1,2900,2900,2900,20,all
137_137_pomper_saffran_2016_45,14,137,pomper_saffran_2016,45,yellow,yellow,target,53,46,0.5353535353535354,NA,1,NA,1,NA,1,1766.6666666666667,1766.6666666666667,1766.6666666666667,20,all
137_137_pomper_saffran_2016_45,15,137,pomper_saffran_2016,45,blue,blue,target,106,0,1,NA,1,NA,1,NA,0,3533.3333333333335,3533.3333333333335,3533.3333333333335,20,all
138_138_pomper_saffran_2016_43,1,138,pomper_saffran_2016,43,white,white,distractor,23,79,0.22549019607843138,-0.05660377358490565,1,0,NA,NA,1,766.6666666666667,766.6666666666667,766.6666666666667,18,all
138_138_pomper_saffran_2016_43,2,138,pomper_saffran_2016,43,black,black,distractor,80,20,0.8,NA,1,1,NA,615,1,2666.666666666667,2666.666666666667,2666.666666666667,18,all
138_138_pomper_saffran_2016_43,3,138,pomper_saffran_2016,43,red,red,target,91,0,1,0.8207547169811321,1,NA,1,NA,0,3033.3333333333335,3033.3333333333335,3033.3333333333335,18,all
138_138_pomper_saffran_2016_43,4,138,pomper_saffran_2016,43,blue,blue,target,40,62,0.39215686274509803,NA,1,NA,0,NA,1,1333.3333333333335,1333.3333333333335,1333.3333333333335,18,all
138_138_pomper_saffran_2016_43,5,138,pomper_saffran_2016,43,brown,brown,distractor,73,29,0.7156862745098039,-0.05660377358490565,1,1,NA,840,1,2433.3333333333335,2433.3333333333335,2433.3333333333335,18,all
138_138_pomper_saffran_2016_43,6,138,pomper_saffran_2016,43,blue,blue,distractor,30,65,0.3157894736842105,NA,1,1,NA,140,1,800,800,800,18,all
138_138_pomper_saffran_2016_43,7,138,pomper_saffran_2016,43,black,black,target,67,34,0.6633663366336634,NA,1,NA,1,NA,1,2233.3333333333335,2233.3333333333335,2233.3333333333335,18,all
138_138_pomper_saffran_2016_43,8,138,pomper_saffran_2016,43,green,green,distractor,98,4,0.9607843137254902,0.9245283018867925,1,1,NA,215,0,3266.666666666667,3266.666666666667,3266.666666666667,18,all
139_139_pomper_saffran_2016_45,9,139,pomper_saffran_2016,45,yellow,yellow,neither,102,0,1,NA,1,NA,NA,NA,0,3400.0000000000005,3400.0000000000005,3400.0000000000005,20,all
139_139_pomper_saffran_2016_45,10,139,pomper_saffran_2016,45,brown,brown,target,61,35,0.6354166666666666,0.33962264150943394,2,NA,0,NA,2,866.6666666666667,1100,1100,20,all
139_139_pomper_saffran_2016_45,11,139,pomper_saffran_2016,45,red,red,distractor,71,32,0.6893203883495146,0.6698113207547169,1,1,NA,890,1,2366.666666666667,2366.666666666667,2366.666666666667,20,all
139_139_pomper_saffran_2016_45,12,139,pomper_saffran_2016,45,orange,orange,target,0,106,0,NA,NA,NA,0,NA,0,NA,NA,NA,20,all
139_139_pomper_saffran_2016_45,13,139,pomper_saffran_2016,45,white,white,distractor,79,25,0.7596153846153846,0.4150943396226415,1,1,NA,690,1,2633.3333333333335,2633.3333333333335,2633.3333333333335,20,all
139_139_pomper_saffran_2016_45,14,139,pomper_saffran_2016,45,orange,orange,distractor,88,0,1,NA,2,1,NA,15,0,1466.6666666666667,2300,2300,20,all
139_139_pomper_saffran_2016_45,15,139,pomper_saffran_2016,45,green,green,target,106,0,1,0.6981132075471699,1,NA,1,NA,0,3533.3333333333335,3533.3333333333335,3533.3333333333335,20,all
140_140_pomper_saffran_2016_46,1,140,pomper_saffran_2016,46,brown,brown,distractor,17,62,0.21518987341772153,0.1509433962264151,1,1,NA,215,1,566.6666666666667,566.6666666666667,566.6666666666667,21,all
140_140_pomper_saffran_2016_46,2,140,pomper_saffran_2016,46,yellow,yellow,distractor,93,11,0.8942307692307693,NA,1,1,NA,340,0,3100,3100,3100,21,all
140_140_pomper_saffran_2016_46,3,140,pomper_saffran_2016,46,green,green,distractor,97,8,0.9238095238095239,0.7924528301886793,1,1,NA,240,0,3233.3333333333335,3233.3333333333335,3233.3333333333335,21,all
140_140_pomper_saffran_2016_46,4,140,pomper_saffran_2016,46,orange,orange,distractor,98,7,0.9333333333333333,NA,1,1,NA,215,0,3266.666666666667,3266.666666666667,3266.666666666667,21,all
140_140_pomper_saffran_2016_46,5,140,pomper_saffran_2016,46,white,white,distractor,102,1,0.9902912621359223,0.37735849056603776,1,1,NA,115,0,3400.0000000000005,3400.0000000000005,3400.0000000000005,21,all
140_140_pomper_saffran_2016_46,6,140,pomper_saffran_2016,46,orange,orange,distractor,77,23,0.77,NA,2,1,NA,215,2,1283.3333333333335,1833.3333333333335,1833.3333333333335,21,all
140_140_pomper_saffran_2016_46,7,140,pomper_saffran_2016,46,yellow,yellow,distractor,102,1,0.9902912621359223,NA,1,1,NA,115,0,3400.0000000000005,3400.0000000000005,3400.0000000000005,21,all
140_140_pomper_saffran_2016_46,8,140,pomper_saffran_2016,46,red,red,target,92,13,0.8761904761904762,0.7924528301886793,1,NA,1,NA,1,3066.666666666667,3066.666666666667,3066.666666666667,21,all
141_141_pomper_saffran_2016_47,9,141,pomper_saffran_2016,47,blue,blue,distractor,69,35,0.6634615384615384,NA,1,1,NA,940,1,2300,2300,2300,22,all
141_141_pomper_saffran_2016_47,10,141,pomper_saffran_2016,47,green,green,target,62,39,0.6138613861386139,NA,2,NA,0,NA,2,1033.3333333333335,1033.3333333333335,1033.3333333333335,22,all
141_141_pomper_saffran_2016_47,11,141,pomper_saffran_2016,47,black,black,target,48,55,0.46601941747572817,0.30188679245283023,1,NA,0,NA,1,1600,1600,1600,22,all
141_141_pomper_saffran_2016_47,12,141,pomper_saffran_2016,47,brown,brown,distractor,83,20,0.8058252427184466,0.7169811320754718,1,1,NA,590,1,2766.666666666667,2766.666666666667,2766.666666666667,22,all
141_141_pomper_saffran_2016_47,13,141,pomper_saffran_2016,47,green,green,target,71,26,0.7319587628865979,NA,1,NA,0,NA,1,2366.666666666667,2366.666666666667,2366.666666666667,22,all
141_141_pomper_saffran_2016_47,14,141,pomper_saffran_2016,47,yellow,yellow,distractor,87,16,0.8446601941747572,0.30188679245283023,1,1,NA,490,1,2900,2900,2900,22,all
141_141_pomper_saffran_2016_47,15,141,pomper_saffran_2016,47,blue,blue,distractor,42,58,0.42,NA,1,1,NA,40,1,1033.3333333333335,366.6666666666667,1033.3333333333335,22,all
141_141_pomper_saffran_2016_47,16,141,pomper_saffran_2016,47,white,white,distractor,97,7,0.9326923076923077,0.7264150943396226,1,1,NA,240,0,3233.3333333333335,3233.3333333333335,3233.3333333333335,22,all
142_142_pomper_saffran_2016_46,1,142,pomper_saffran_2016,46,white,white,distractor,97,3,0.97,0.839622641509434,1,1,NA,190,0,3233.3333333333335,3233.3333333333335,3233.3333333333335,21,all
142_142_pomper_saffran_2016_46,2,142,pomper_saffran_2016,46,black,black,distractor,85,19,0.8173076923076923,NA,1,1,NA,540,1,2833.3333333333335,2833.3333333333335,2833.3333333333335,21,all
142_142_pomper_saffran_2016_46,3,142,pomper_saffran_2016,46,red,red,target,106,0,1,0.6603773584905661,1,NA,1,NA,0,3533.3333333333335,3533.3333333333335,3533.3333333333335,21,all
142_142_pomper_saffran_2016_46,4,142,pomper_saffran_2016,46,blue,blue,distractor,106,0,1,NA,1,1,NA,15,0,3533.3333333333335,3533.3333333333335,3533.3333333333335,21,all
142_142_pomper_saffran_2016_46,5,142,pomper_saffran_2016,46,brown,brown,distractor,95,8,0.9223300970873787,0.8679245283018868,1,1,NA,290,0,3166.666666666667,3166.666666666667,3166.666666666667,21,all
142_142_pomper_saffran_2016_46,6,142,pomper_saffran_2016,46,blue,blue,distractor,106,0,1,NA,1,1,NA,15,0,3533.3333333333335,3533.3333333333335,3533.3333333333335,21,all
142_142_pomper_saffran_2016_46,7,142,pomper_saffran_2016,46,black,black,distractor,99,4,0.9611650485436893,NA,1,1,NA,190,0,3300.0000000000005,3300.0000000000005,3300.0000000000005,21,all
142_142_pomper_saffran_2016_46,8,142,pomper_saffran_2016,46,green,green,target,66,36,0.6470588235294118,0.6226415094339622,2,NA,0,NA,2,1100,1166.6666666666667,1166.6666666666667,21,all
143_143_pomper_saffran_2016_45,9,143,pomper_saffran_2016,45,yellow,yellow,neither,39,31,0.5571428571428572,NA,1,NA,NA,NA,1,1300,1300,1300,20,all
143_143_pomper_saffran_2016_45,10,143,pomper_saffran_2016,45,brown,brown,target,106,0,1,NA,1,NA,1,NA,0,3533.3333333333335,3533.3333333333335,3533.3333333333335,20,all
143_143_pomper_saffran_2016_45,11,143,pomper_saffran_2016,45,red,red,distractor,93,12,0.8857142857142857,0.7169811320754718,1,1,NA,340,1,3100,3100,3100,20,all
143_143_pomper_saffran_2016_45,14,143,pomper_saffran_2016,45,orange,orange,neither,76,22,0.7755102040816326,NA,1,NA,NA,NA,1,2533.3333333333335,2533.3333333333335,2533.3333333333335,20,all
143_143_pomper_saffran_2016_45,15,143,pomper_saffran_2016,45,green,green,neither,69,17,0.8023255813953488,0.5377358490566038,1,NA,NA,NA,1,2300,2300,2300,20,all
143_143_pomper_saffran_2016_45,16,143,pomper_saffran_2016,45,yellow,yellow,target,106,0,1,NA,1,NA,1,NA,0,3533.3333333333335,3533.3333333333335,3533.3333333333335,20,all
144_144_pomper_saffran_2016_46,1,144,pomper_saffran_2016,46,yellow,yellow,target,106,0,1,NA,1,NA,1,NA,0,3533.3333333333335,3533.3333333333335,3533.3333333333335,21,all
144_144_pomper_saffran_2016_46,2,144,pomper_saffran_2016,46,brown,brown,neither,101,0,1,0.9245283018867925,1,NA,NA,NA,0,3366.666666666667,3366.666666666667,3366.666666666667,21,all
144_144_pomper_saffran_2016_46,3,144,pomper_saffran_2016,46,red,red,distractor,90,12,0.8823529411764706,0.7641509433962265,1,1,NA,415,1,3000,3000,3000,21,all
144_144_pomper_saffran_2016_46,4,144,pomper_saffran_2016,46,orange,orange,distractor,101,3,0.9711538461538461,NA,1,1,NA,140,0,3366.666666666667,3366.666666666667,3366.666666666667,21,all
144_144_pomper_saffran_2016_46,5,144,pomper_saffran_2016,46,white,white,distractor,99,3,0.9705882352941176,0.9339622641509434,1,1,NA,190,0,3300.0000000000005,3300.0000000000005,3300.0000000000005,21,all
144_144_pomper_saffran_2016_46,6,144,pomper_saffran_2016,46,orange,orange,distractor,91,11,0.8921568627450981,NA,1,1,NA,390,0,3033.3333333333335,3033.3333333333335,3033.3333333333335,21,all
144_144_pomper_saffran_2016_46,7,144,pomper_saffran_2016,46,green,green,distractor,94,9,0.912621359223301,0.7735849056603774,1,1,NA,315,0,3133.3333333333335,3133.3333333333335,3133.3333333333335,21,all
144_144_pomper_saffran_2016_46,8,144,pomper_saffran_2016,46,yellow,yellow,neither,93,0,1,NA,1,NA,NA,NA,0,3100,3100,3100,21,all
145_145_pomper_saffran_2016_47,9,145,pomper_saffran_2016,47,black,black,target,83,13,0.8645833333333334,NA,2,NA,1,NA,2,1383.3333333333333,2300,2300,22,all
145_145_pomper_saffran_2016_47,10,145,pomper_saffran_2016,47,white,white,target,79,0,1,0.5660377358490566,2,NA,1,NA,0,1316.6666666666667,2133.3333333333335,2133.3333333333335,22,all
145_145_pomper_saffran_2016_47,11,145,pomper_saffran_2016,47,green,green,target,75,5,0.9375,NA,2,NA,0,NA,0,1250,1166.6666666666667,1333.3333333333335,22,all
145_145_pomper_saffran_2016_47,12,145,pomper_saffran_2016,47,blue,blue,distractor,66,37,0.6407766990291263,NA,1,1,NA,1015,1,2200,2200,2200,22,all
145_145_pomper_saffran_2016_47,13,145,pomper_saffran_2016,47,brown,brown,target,66,19,0.7764705882352941,0.6226415094339622,2,NA,0,NA,1,1100,1500,1500,22,all
145_145_pomper_saffran_2016_47,14,145,pomper_saffran_2016,47,blue,blue,distractor,97,7,0.9326923076923077,NA,1,1,NA,240,0,3233.3333333333335,3233.3333333333335,3233.3333333333335,22,all
145_145_pomper_saffran_2016_47,16,145,pomper_saffran_2016,47,black,black,distractor,58,35,0.6236559139784946,NA,2,1,NA,115,2,966.6666666666667,1333.3333333333335,1333.3333333333335,22,all
146_146_pomper_saffran_2016_43,9,146,pomper_saffran_2016,43,black,black,distractor,89,16,0.8476190476190476,NA,1,1,NA,440,1,2966.666666666667,2966.666666666667,2966.666666666667,18,all
146_146_pomper_saffran_2016_43,10,146,pomper_saffran_2016,43,white,white,distractor,81,21,0.7941176470588235,0.5471698113207548,1,1,NA,115,1,2700,2700,2700,18,all
146_146_pomper_saffran_2016_43,11,146,pomper_saffran_2016,43,green,green,target,67,11,0.8589743589743589,0.6320754716981132,1,NA,1,NA,0,2133.3333333333335,2133.3333333333335,2133.3333333333335,18,all
146_146_pomper_saffran_2016_43,12,146,pomper_saffran_2016,43,blue,blue,target,97,0,1,NA,1,NA,1,NA,0,3233.3333333333335,3233.3333333333335,3233.3333333333335,18,all
146_146_pomper_saffran_2016_43,13,146,pomper_saffran_2016,43,brown,brown,target,81,23,0.7788461538461539,0.5660377358490567,1,NA,1,NA,1,2700,2700,2700,18,all
146_146_pomper_saffran_2016_43,14,146,pomper_saffran_2016,43,blue,blue,distractor,68,33,0.6732673267326733,NA,1,1,NA,340,1,2266.666666666667,2266.666666666667,2266.666666666667,18,all
146_146_pomper_saffran_2016_43,15,146,pomper_saffran_2016,43,red,red,target,84,0,1,0.6886792452830189,2,NA,1,NA,0,1400,1233.3333333333335,1566.6666666666667,18,all
146_146_pomper_saffran_2016_43,16,146,pomper_saffran_2016,43,black,black,distractor,15,49,0.234375,NA,1,0,NA,NA,1,500.00000000000006,500.00000000000006,500.00000000000006,18,all
147_147_pomper_saffran_2016_46,9,147,pomper_saffran_2016,46,white,white,distractor,89,16,0.8476190476190476,0.7358490566037736,1,1,NA,440,1,2966.666666666667,2966.666666666667,2966.666666666667,21,all
147_147_pomper_saffran_2016_46,10,147,pomper_saffran_2016,46,black,black,distractor,38,63,0.37623762376237624,NA,1,1,NA,490,2,1266.6666666666667,1266.6666666666667,1266.6666666666667,21,all
147_147_pomper_saffran_2016_46,11,147,pomper_saffran_2016,46,red,red,distractor,97,7,0.9326923076923077,0.6981132075471699,1,1,NA,240,0,3233.3333333333335,3233.3333333333335,3233.3333333333335,21,all
147_147_pomper_saffran_2016_46,12,147,pomper_saffran_2016,46,blue,blue,distractor,78,21,0.7878787878787878,NA,1,1,NA,190,1,2600,2600,2600,21,all
147_147_pomper_saffran_2016_46,13,147,pomper_saffran_2016,46,brown,brown,distractor,93,11,0.8942307692307693,0.7264150943396227,1,1,NA,340,0,3100,3100,3100,21,all
147_147_pomper_saffran_2016_46,14,147,pomper_saffran_2016,46,blue,blue,target,106,0,1,NA,1,NA,1,NA,0,3533.3333333333335,3533.3333333333335,3533.3333333333335,21,all
147_147_pomper_saffran_2016_46,15,147,pomper_saffran_2016,46,black,black,distractor,46,19,0.7076923076923077,NA,1,1,NA,290,0,1533.3333333333335,1533.3333333333335,1533.3333333333335,21,all
147_147_pomper_saffran_2016_46,16,147,pomper_saffran_2016,46,green,green,distractor,77,23,0.77,0.660377358490566,1,1,NA,140,1,2233.3333333333335,2233.3333333333335,2233.3333333333335,21,all
148_148_pomper_saffran_2016_44,1,148,pomper_saffran_2016,44,yellow,yellow,target,28,40,0.4117647058823529,NA,1,NA,0,NA,1,633.3333333333334,300,633.3333333333334,19,all
148_148_pomper_saffran_2016_44,2,148,pomper_saffran_2016,44,brown,brown,distractor,75,26,0.7425742574257426,0.21698113207547165,2,1,NA,140,2,1250,1533.3333333333335,1533.3333333333335,19,all
148_148_pomper_saffran_2016_44,3,148,pomper_saffran_2016,44,red,red,distractor,50,49,0.5050505050505051,0.3679245283018868,1,1,NA,290,1,1666.6666666666667,1666.6666666666667,1666.6666666666667,19,all
148_148_pomper_saffran_2016_44,4,148,pomper_saffran_2016,44,orange,orange,target,44,55,0.4444444444444444,NA,2,NA,0,NA,2,733.3333333333334,966.6666666666667,966.6666666666667,19,all
148_148_pomper_saffran_2016_44,5,148,pomper_saffran_2016,44,white,white,distractor,51,52,0.49514563106796117,0.2358490566037736,1,1,NA,340,1,1700.0000000000002,1700.0000000000002,1700.0000000000002,19,all
148_148_pomper_saffran_2016_44,6,148,pomper_saffran_2016,44,orange,orange,target,106,0,1,NA,1,NA,1,NA,0,3533.3333333333335,3533.3333333333335,3533.3333333333335,19,all
148_148_pomper_saffran_2016_44,7,148,pomper_saffran_2016,44,green,green,distractor,94,11,0.8952380952380953,0.42452830188679247,1,1,NA,315,0,3133.3333333333335,3133.3333333333335,3133.3333333333335,19,all
148_148_pomper_saffran_2016_44,8,148,pomper_saffran_2016,44,yellow,yellow,target,106,0,1,NA,1,NA,1,NA,0,3533.3333333333335,3533.3333333333335,3533.3333333333335,19,all
149_149_pomper_saffran_2016_44,9,149,pomper_saffran_2016,44,brown,brown,distractor,67,27,0.7127659574468085,0.3773584905660377,2,1,NA,90,2,1116.6666666666667,600,1633.3333333333335,19,all
149_149_pomper_saffran_2016_44,10,149,pomper_saffran_2016,44,yellow,yellow,target,106,0,1,NA,1,NA,1,NA,0,3533.3333333333335,3533.3333333333335,3533.3333333333335,19,all
149_149_pomper_saffran_2016_44,11,149,pomper_saffran_2016,44,green,green,target,106,0,1,1,1,NA,1,NA,0,3533.3333333333335,3533.3333333333335,3533.3333333333335,19,all
149_149_pomper_saffran_2016_44,12,149,pomper_saffran_2016,44,orange,orange,distractor,62,32,0.6595744680851063,NA,2,1,NA,390,1,1033.3333333333335,733.3333333333334,1333.3333333333335,19,all
149_149_pomper_saffran_2016_44,13,149,pomper_saffran_2016,44,white,white,target,69,27,0.71875,0.3962264150943396,1,NA,0,NA,1,2300,2300,2300,19,all
149_149_pomper_saffran_2016_44,14,149,pomper_saffran_2016,44,orange,orange,distractor,102,1,0.9902912621359223,NA,1,1,NA,115,0,3400.0000000000005,3400.0000000000005,3400.0000000000005,19,all
149_149_pomper_saffran_2016_44,15,149,pomper_saffran_2016,44,yellow,yellow,distractor,95,8,0.9223300970873787,NA,1,1,NA,290,0,3166.666666666667,3166.666666666667,3166.666666666667,19,all
149_149_pomper_saffran_2016_44,16,149,pomper_saffran_2016,44,red,red,target,106,0,1,1,1,NA,1,NA,0,3533.3333333333335,3533.3333333333335,3533.3333333333335,19,all
150_150_pomper_saffran_2016_43,9,150,pomper_saffran_2016,43,white,white,distractor,90,12,0.8823529411764706,0.7452830188679246,2,1,NA,15,2,1500,1466.6666666666667,1533.3333333333335,18,all
150_150_pomper_saffran_2016_43,10,150,pomper_saffran_2016,43,black,black,distractor,77,19,0.8020833333333334,NA,2,1,NA,190,2,1283.3333333333335,866.6666666666667,1700.0000000000002,18,all
150_150_pomper_saffran_2016_43,11,150,pomper_saffran_2016,43,red,red,target,106,0,1,0.8018867924528301,1,NA,1,NA,0,3533.3333333333335,3533.3333333333335,3533.3333333333335,18,all
150_150_pomper_saffran_2016_43,12,150,pomper_saffran_2016,43,blue,blue,distractor,105,0,1,NA,1,1,NA,40,0,3500.0000000000005,3500.0000000000005,3500.0000000000005,18,all
150_150_pomper_saffran_2016_43,13,150,pomper_saffran_2016,43,brown,brown,distractor,93,11,0.8942307692307693,0.7641509433962265,1,1,NA,340,0,3100,3100,3100,18,all
150_150_pomper_saffran_2016_43,14,150,pomper_saffran_2016,43,blue,blue,target,106,0,1,NA,1,NA,1,NA,0,3533.3333333333335,3533.3333333333335,3533.3333333333335,18,all
150_150_pomper_saffran_2016_43,15,150,pomper_saffran_2016,43,black,black,target,106,0,1,NA,1,NA,1,NA,0,3533.3333333333335,3533.3333333333335,3533.3333333333335,18,all
150_150_pomper_saffran_2016_43,16,150,pomper_saffran_2016,43,green,green,target,76,21,0.7835051546391752,0.71698113207547165,2,NA,0,NA,2,1266.6666666666667,1500,1500,18,all
151_151_pomper_saffran_2016_45,1,151,pomper_saffran_2016,45,brown,brown,target,52,43,0.5473684210526316,0.2169811320754717,2,NA,0,NA,3,683.3333333333334,433.33333333333337,933.3333333333334,20,all
151_151_pomper_saffran_2016_45,2,151,pomper_saffran_2016,45,yellow,yellow,distractor,98,4,0.9607843137254902,NA,1,1,NA,215,0,3266.666666666667,3266.666666666667,3266.666666666667,20,all
151_151_pomper_saffran_2016_45,3,151,pomper_saffran_2016,45,green,green,target,69,24,0.7419354838709677,0.2264150943396226,1,NA,0,NA,1,1933.3333333333335,366.6666666666667,1933.3333333333335,20,all
151_151_pomper_saffran_2016_45,4,151,pomper_saffran_2016,45,orange,orange,target,55,40,0.5789473684210527,NA,2,NA,0,NA,2,866.6666666666667,1000.0000000000001,1000.0000000000001,20,all
151_151_pomper_saffran_2016_45,5,151,pomper_saffran_2016,45,white,white,distractor,67,29,0.6979166666666666,0.2264150943396226,2,1,NA,540,1,1116.6666666666667,1200,1200,20,all
151_151_pomper_saffran_2016_45,6,151,pomper_saffran_2016,45,orange,orange,target,52,48,0.52,NA,2,NA,0,NA,2,866.6666666666667,433.33333333333337,1300,20,all
151_151_pomper_saffran_2016_45,7,151,pomper_saffran_2016,45,yellow,yellow,distractor,79,24,0.7669902912621359,NA,1,1,NA,690,1,2633.3333333333335,2633.3333333333335,2633.3333333333335,20,all
151_151_pomper_saffran_2016_45,8,151,pomper_saffran_2016,45,red,red,target,58,45,0.5631067961165048,0.32075471698113206,2,NA,0,NA,2,966.6666666666667,1366.6666666666667,1366.6666666666667,20,all
152_152_pomper_saffran_2016_46,1,152,pomper_saffran_2016,46,black,black,distractor,61,25,0.7093023255813954,NA,1,1,NA,515,1,2033.3333333333335,2033.3333333333335,2033.3333333333335,21,all
152_152_pomper_saffran_2016_46,2,152,pomper_saffran_2016,46,white,white,distractor,89,16,0.8476190476190476,0.7264150943396227,1,1,NA,440,1,2966.666666666667,2966.666666666667,2966.666666666667,21,all
152_152_pomper_saffran_2016_46,4,152,pomper_saffran_2016,46,blue,blue,neither,48,16,0.75,NA,1,NA,NA,NA,1,1366.6666666666667,233.33333333333334,1366.6666666666667,21,all
152_152_pomper_saffran_2016_46,5,152,pomper_saffran_2016,46,brown,brown,distractor,91,12,0.883495145631068,0.7075471698113208,1,1,NA,390,1,3033.3333333333335,3033.3333333333335,3033.3333333333335,21,all
152_152_pomper_saffran_2016_46,6,152,pomper_saffran_2016,46,blue,blue,distractor,61,34,0.6421052631578947,NA,2,1,NA,515,3,1016.6666666666667,966.6666666666667,1066.6666666666667,21,all
152_152_pomper_saffran_2016_46,7,152,pomper_saffran_2016,46,red,red,target,31,72,0.30097087378640774,NA,1,NA,0,NA,2,766.6666666666667,266.6666666666667,766.6666666666667,21,all
152_152_pomper_saffran_2016_46,8,152,pomper_saffran_2016,46,black,black,neither,75,0,1,NA,1,NA,NA,NA,0,2500,2500,2500,21,all
153_153_pomper_saffran_2016_45,1,153,pomper_saffran_2016,45,black,black,distractor,29,55,0.34523809523809523,NA,1,1,NA,390,2,666.6666666666667,300,666.6666666666667,20,all
153_153_pomper_saffran_2016_45,2,153,pomper_saffran_2016,45,white,white,target,106,0,1,0.4811320754716981,1,NA,1,NA,0,3533.3333333333335,3533.3333333333335,3533.3333333333335,20,all
153_153_pomper_saffran_2016_45,3,153,pomper_saffran_2016,45,green,green,distractor,79,7,0.9186046511627907,0.6037735849056604,1,1,NA,240,0,2633.3333333333335,2633.3333333333335,2633.3333333333335,20,all
153_153_pomper_saffran_2016_45,5,153,pomper_saffran_2016,45,brown,brown,target,45,55,0.45,0.42452830188679247,1,NA,0,NA,2,1500,1500,1500,20,all
153_153_pomper_saffran_2016_45,6,153,pomper_saffran_2016,45,blue,blue,target,37,62,0.37373737373737376,NA,1,NA,0,NA,1,1133.3333333333335,1133.3333333333335,1133.3333333333335,20,all
153_153_pomper_saffran_2016_45,7,153,pomper_saffran_2016,45,red,red,distractor,89,15,0.8557692307692307,0.7735849056603774,1,1,NA,440,1,2966.666666666667,2966.666666666667,2966.666666666667,20,all
153_153_pomper_saffran_2016_45,8,153,pomper_saffran_2016,45,black,black,target,106,0,1,NA,1,NA,1,NA,0,3533.3333333333335,3533.3333333333335,3533.3333333333335,20,all
154_154_pomper_saffran_2016_41,9,154,pomper_saffran_2016,41,brown,brown,distractor,49,50,0.494949494949495,0.3113207547169812,2,1,NA,440,3,816.6666666666667,866.6666666666667,866.6666666666667,16,all
154_154_pomper_saffran_2016_41,10,154,pomper_saffran_2016,41,yellow,yellow,target,91,13,0.875,NA,1,NA,1,NA,1,3033.3333333333335,3033.3333333333335,3033.3333333333335,16,all
154_154_pomper_saffran_2016_41,11,154,pomper_saffran_2016,41,green,green,target,76,28,0.7307692307692307,0.49999999999999994,1,NA,0,NA,1,2433.3333333333335,2433.3333333333335,2433.3333333333335,16,all
154_154_pomper_saffran_2016_41,12,154,pomper_saffran_2016,41,orange,orange,distractor,81,19,0.81,NA,2,1,NA,140,2,1350.0000000000002,633.3333333333334,2066.666666666667,16,all
154_154_pomper_saffran_2016_41,13,154,pomper_saffran_2016,41,white,white,distractor,89,16,0.8476190476190476,0.3679245283018868,1,1,NA,440,1,2966.666666666667,2966.666666666667,2966.666666666667,16,all
154_154_pomper_saffran_2016_41,14,154,pomper_saffran_2016,41,orange,orange,target,82,18,0.82,NA,1,NA,0,NA,1,2733.3333333333335,2733.3333333333335,2733.3333333333335,16,all
154_154_pomper_saffran_2016_41,15,154,pomper_saffran_2016,41,yellow,yellow,target,106,0,1,NA,1,NA,1,NA,0,3533.3333333333335,3533.3333333333335,3533.3333333333335,16,all
154_154_pomper_saffran_2016_41,16,154,pomper_saffran_2016,41,red,red,target,79,23,0.7745098039215687,0.48113207547169806,1,NA,0,NA,1,2600,2600,2600,16,all
155_155_pomper_saffran_2016_44,1,155,pomper_saffran_2016,44,orange,orange,target,106,0,1,NA,1,NA,1,NA,0,3533.3333333333335,3533.3333333333335,3533.3333333333335,19,all
155_155_pomper_saffran_2016_44,2,155,pomper_saffran_2016,44,red,red,target,106,0,1,NA,1,NA,1,NA,0,3533.3333333333335,3533.3333333333335,3533.3333333333335,19,all
155_155_pomper_saffran_2016_44,3,155,pomper_saffran_2016,44,yellow,yellow,distractor,95,7,0.9313725490196079,-0.10377358490566035,1,1,NA,290,0,3166.666666666667,3166.666666666667,3166.666666666667,19,all
155_155_pomper_saffran_2016_44,4,155,pomper_saffran_2016,44,white,white,target,60,38,0.6122448979591837,0.5566037735849056,1,NA,1,NA,1,2000.0000000000002,2000.0000000000002,2000.0000000000002,19,all
155_155_pomper_saffran_2016_44,5,155,pomper_saffran_2016,44,red,red,target,106,0,1,NA,1,NA,1,NA,0,3533.3333333333335,3533.3333333333335,3533.3333333333335,19,all
155_155_pomper_saffran_2016_44,6,155,pomper_saffran_2016,44,black,black,distractor,0,106,0,-0.0660377358490566,NA,0,NA,NA,0,NA,NA,NA,19,all
155_155_pomper_saffran_2016_44,7,155,pomper_saffran_2016,44,orange,orange,distractor,71,7,0.9102564102564102,NA,2,1,NA,240,0,1183.3333333333335,800,1566.6666666666667,19,all
155_155_pomper_saffran_2016_44,8,155,pomper_saffran_2016,44,brown,brown,distractor,103,1,0.9903846153846154,0.6132075471698113,1,1,NA,90,0,3433.3333333333335,3433.3333333333335,3433.3333333333335,19,all
156_156_pomper_saffran_2016_46,9,156,pomper_saffran_2016,46,green,green,distractor,7,96,0.06796116504854369,NA,NA,0,NA,NA,0,NA,233.33333333333334,NA,21,all
156_156_pomper_saffran_2016_46,10,156,pomper_saffran_2016,46,blue,blue,distractor,41,58,0.41414141414141414,NA,2,1,NA,340,2,683.3333333333334,933.3333333333334,933.3333333333334,21,all
156_156_pomper_saffran_2016_46,11,156,pomper_saffran_2016,46,black,black,target,78,0,1,NA,2,NA,1,NA,0,1300,1766.6666666666667,1766.6666666666667,21,all
156_156_pomper_saffran_2016_46,12,156,pomper_saffran_2016,46,brown,brown,distractor,79,0,1,0.49999999999999994,1,1,NA,240,0,2633.3333333333335,2633.3333333333335,2633.3333333333335,21,all
156_156_pomper_saffran_2016_46,14,156,pomper_saffran_2016,46,green,green,distractor,91,12,0.883495145631068,NA,1,1,NA,390,1,3033.3333333333335,3033.3333333333335,3033.3333333333335,21,all
156_156_pomper_saffran_2016_46,15,156,pomper_saffran_2016,46,white,white,target,77,26,0.7475728155339806,0.7264150943396226,1,NA,1,NA,1,2566.666666666667,2566.666666666667,2566.666666666667,21,all
156_156_pomper_saffran_2016_46,16,156,pomper_saffran_2016,46,blue,blue,target,62,36,0.6326530612244898,NA,2,NA,0,NA,2,1033.3333333333335,566.6666666666667,1500,21,all
157_157_pomper_saffran_2016_46,1,157,pomper_saffran_2016,46,blue,blue,distractor,74,24,0.7551020408163265,NA,2,1,NA,90,2,1233.3333333333335,2000.0000000000002,2000.0000000000002,21,all
157_157_pomper_saffran_2016_46,2,157,pomper_saffran_2016,46,green,green,target,106,0,1,NA,1,NA,1,NA,0,3533.3333333333335,3533.3333333333335,3533.3333333333335,21,all
157_157_pomper_saffran_2016_46,3,157,pomper_saffran_2016,46,black,black,target,106,0,1,0.7452830188679245,1,NA,1,NA,0,3533.3333333333335,3533.3333333333335,3533.3333333333335,21,all
157_157_pomper_saffran_2016_46,4,157,pomper_saffran_2016,46,brown,brown,distractor,102,1,0.9902912621359223,0.7358490566037736,1,1,NA,115,0,3400.0000000000005,3400.0000000000005,3400.0000000000005,21,all
157_157_pomper_saffran_2016_46,5,157,pomper_saffran_2016,46,green,green,distractor,106,0,1,NA,1,1,NA,15,0,3533.3333333333335,3533.3333333333335,3533.3333333333335,21,all
157_157_pomper_saffran_2016_46,6,157,pomper_saffran_2016,46,yellow,yellow,distractor,65,27,0.7065217391304348,0.6132075471698113,1,1,NA,1040,1,2166.666666666667,2166.666666666667,2166.666666666667,21,all
157_157_pomper_saffran_2016_46,7,157,pomper_saffran_2016,46,blue,blue,target,70,32,0.6862745098039216,NA,2,NA,0,NA,2,1166.6666666666667,1466.6666666666667,1466.6666666666667,21,all
157_157_pomper_saffran_2016_46,8,157,pomper_saffran_2016,46,white,white,target,74,24,0.7551020408163265,0.6886792452830188,2,NA,0,NA,2,1233.3333333333335,1166.6666666666667,1300,21,all
158_158_pomper_saffran_2016_47,1,158,pomper_saffran_2016,47,blue,blue,target,36,67,0.34951456310679613,NA,1,NA,0,NA,1,1200,1200,1200,22,all
158_158_pomper_saffran_2016_47,2,158,pomper_saffran_2016,47,green,green,distractor,56,24,0.7,NA,2,1,NA,690,1,933.3333333333335,866.6666666666667,1000.0000000000001,22,all
158_158_pomper_saffran_2016_47,3,158,pomper_saffran_2016,47,black,black,target,76,0,1,NA,1,NA,1,NA,0,2233.3333333333335,2233.3333333333335,2233.3333333333335,22,all
158_158_pomper_saffran_2016_47,4,158,pomper_saffran_2016,47,brown,brown,distractor,95,8,0.9223300970873787,0.5188679245283019,1,1,NA,290,0,3166.666666666667,3166.666666666667,3166.666666666667,22,all
158_158_pomper_saffran_2016_47,5,158,pomper_saffran_2016,47,green,green,distractor,37,67,0.3557692307692308,NA,1,0,NA,NA,1,1233.3333333333335,1233.3333333333335,1233.3333333333335,22,all
158_158_pomper_saffran_2016_47,7,158,pomper_saffran_2016,47,blue,blue,target,71,8,0.8987341772151899,NA,1,NA,1,NA,0,2366.666666666667,2366.666666666667,2366.666666666667,22,all
158_158_pomper_saffran_2016_47,8,158,pomper_saffran_2016,47,white,white,distractor,59,40,0.5959595959595959,0.4811320754716981,2,1,NA,540,3,983.3333333333334,800,1166.6666666666667,22,all
159_159_pomper_saffran_2016_47,9,159,pomper_saffran_2016,47,red,red,distractor,94,9,0.912621359223301,NA,1,1,NA,315,0,3133.3333333333335,3133.3333333333335,3133.3333333333335,22,all
159_159_pomper_saffran_2016_47,10,159,pomper_saffran_2016,47,orange,orange,neither,41,15,0.7321428571428571,NA,1,NA,NA,NA,1,1366.6666666666667,1366.6666666666667,1366.6666666666667,22,all
159_159_pomper_saffran_2016_47,11,159,pomper_saffran_2016,47,yellow,yellow,target,106,0,1,0.6981132075471699,1,NA,1,NA,0,3533.3333333333335,3533.3333333333335,3533.3333333333335,22,all
159_159_pomper_saffran_2016_47,12,159,pomper_saffran_2016,47,white,white,target,24,40,0.375,0.07547169811320756,1,NA,0,NA,1,633.3333333333334,633.3333333333334,633.3333333333334,22,all
159_159_pomper_saffran_2016_47,13,159,pomper_saffran_2016,47,black,black,target,66,32,0.673469387755102,0.6226415094339622,1,NA,0,NA,1,1966.6666666666667,233.33333333333334,1966.6666666666667,22,all
159_159_pomper_saffran_2016_47,14,159,pomper_saffran_2016,47,red,red,distractor,0,76,0,NA,NA,0,NA,NA,0,NA,NA,NA,22,all
159_159_pomper_saffran_2016_47,15,159,pomper_saffran_2016,47,brown,brown,distractor,87,16,0.8446601941747572,0.44339622641509435,1,1,NA,490,1,2900,2900,2900,22,all
159_159_pomper_saffran_2016_47,16,159,pomper_saffran_2016,47,orange,orange,distractor,0,106,0,NA,NA,0,NA,NA,0,NA,NA,NA,22,all
160_160_pomper_saffran_2016_43,1,160,pomper_saffran_2016,43,green,green,target,76,26,0.7450980392156863,NA,1,NA,0,NA,1,2433.3333333333335,2433.3333333333335,2433.3333333333335,18,all
160_160_pomper_saffran_2016_43,2,160,pomper_saffran_2016,43,blue,blue,target,24,73,0.24742268041237114,NA,1,NA,0,NA,1,666.6666666666667,666.6666666666667,666.6666666666667,18,all
160_160_pomper_saffran_2016_43,3,160,pomper_saffran_2016,43,black,black,distractor,28,72,0.28,0.2641509433962264,1,1,NA,515,2,933.3333333333334,933.3333333333334,933.3333333333334,18,all
160_160_pomper_saffran_2016_43,4,160,pomper_saffran_2016,43,brown,brown,distractor,66,29,0.6947368421052632,0.6226415094339622,3,1,NA,90,2,733.3333333333334,400,1333.3333333333335,18,all
160_160_pomper_saffran_2016_43,5,160,pomper_saffran_2016,43,yellow,yellow,target,106,0,1,0.3207547169811321,1,NA,1,NA,0,3533.3333333333335,3533.3333333333335,3533.3333333333335,18,all
160_160_pomper_saffran_2016_43,6,160,pomper_saffran_2016,43,green,green,distractor,71,24,0.7473684210526316,NA,1,1,NA,340,1,2366.666666666667,2366.666666666667,2366.666666666667,18,all
160_160_pomper_saffran_2016_43,7,160,pomper_saffran_2016,43,white,white,target,106,0,1,0.7264150943396226,1,NA,1,NA,0,3533.3333333333335,3533.3333333333335,3533.3333333333335,18,all
160_160_pomper_saffran_2016_43,8,160,pomper_saffran_2016,43,blue,blue,distractor,95,5,0.95,NA,1,1,NA,140,0,3166.666666666667,3166.666666666667,3166.666666666667,18,all
161_161_pomper_saffran_2016_44,1,161,pomper_saffran_2016,44,orange,orange,target,39,33,0.5416666666666666,NA,1,NA,1,NA,1,1300,1300,1300,19,all
161_161_pomper_saffran_2016_44,2,161,pomper_saffran_2016,44,red,red,target,77,0,1,NA,1,NA,1,NA,0,2566.666666666667,2566.666666666667,2566.666666666667,19,all
161_161_pomper_saffran_2016_44,3,161,pomper_saffran_2016,44,yellow,yellow,distractor,89,12,0.8811881188118812,0.42452830188679247,1,1,NA,415,1,2966.666666666667,2966.666666666667,2966.666666666667,19,all
161_161_pomper_saffran_2016_44,4,161,pomper_saffran_2016,44,white,white,distractor,80,17,0.8247422680412371,0.3207547169811321,2,1,NA,115,2,1333.3333333333335,2166.666666666667,2166.666666666667,19,all
161_161_pomper_saffran_2016_44,5,161,pomper_saffran_2016,44,red,red,distractor,98,5,0.9514563106796117,NA,1,1,NA,215,0,3266.666666666667,3266.666666666667,3266.666666666667,19,all
161_161_pomper_saffran_2016_44,6,161,pomper_saffran_2016,44,black,black,distractor,55,44,0.5555555555555556,0.4056603773584906,1,1,NA,440,2,1833.3333333333335,1833.3333333333335,1833.3333333333335,19,all
161_161_pomper_saffran_2016_44,7,161,pomper_saffran_2016,44,orange,orange,target,23,71,0.24468085106382978,NA,1,NA,0,NA,1,533.3333333333334,233.33333333333334,533.3333333333334,19,all
161_161_pomper_saffran_2016_44,8,161,pomper_saffran_2016,44,brown,brown,distractor,53,46,0.5353535353535354,0.339622641509434,1,1,NA,490,2,1600,1600,1600,19,all
162_162_pomper_saffran_2016_45,10,162,pomper_saffran_2016,45,blue,blue,target,63,34,0.6494845360824743,NA,2,NA,0,NA,2,1050,1200,1200,20,all
162_162_pomper_saffran_2016_45,11,162,pomper_saffran_2016,45,black,black,neither,22,41,0.3492063492063492,-0.1132075471698113,1,NA,NA,NA,1,733.3333333333334,733.3333333333334,733.3333333333334,20,all
162_162_pomper_saffran_2016_45,12,162,pomper_saffran_2016,45,brown,brown,target,97,6,0.941747572815534,0.4716981132075472,1,NA,1,NA,0,3233.3333333333335,3233.3333333333335,3233.3333333333335,20,all
162_162_pomper_saffran_2016_45,13,162,pomper_saffran_2016,45,yellow,yellow,distractor,42,34,0.5526315789473685,0.009433962264150941,1,0,NA,NA,1,1400,1400,1400,20,all
162_162_pomper_saffran_2016_45,15,162,pomper_saffran_2016,45,white,white,distractor,57,47,0.5480769230769231,0.4811320754716981,1,1,NA,1240,1,1900.0000000000002,1900.0000000000002,1900.0000000000002,20,all
162_162_pomper_saffran_2016_45,16,162,pomper_saffran_2016,45,blue,blue,neither,95,0,1,NA,1,NA,NA,NA,0,3166.666666666667,3166.666666666667,3166.666666666667,20,all
163_163_pomper_saffran_2016_46,1,163,pomper_saffran_2016,46,blue,blue,target,75,28,0.7281553398058253,NA,2,NA,0,NA,2,1250,1233.3333333333335,1266.6666666666667,21,all
163_163_pomper_saffran_2016_46,2,163,pomper_saffran_2016,46,green,green,target,91,9,0.91,NA,1,NA,0,NA,0,2766.666666666667,266.6666666666667,2766.666666666667,21,all
163_163_pomper_saffran_2016_46,3,163,pomper_saffran_2016,46,black,black,distractor,74,29,0.7184466019417476,0.6981132075471698,1,1,NA,815,1,2466.666666666667,2466.666666666667,2466.666666666667,21,all
163_163_pomper_saffran_2016_46,4,163,pomper_saffran_2016,46,brown,brown,target,66,24,0.7333333333333333,0.6226415094339622,1,NA,0,NA,1,1966.6666666666667,233.33333333333334,1966.6666666666667,21,all
163_163_pomper_saffran_2016_46,5,163,pomper_saffran_2016,46,green,green,distractor,103,0,1,NA,1,1,NA,90,0,3433.3333333333335,3433.3333333333335,3433.3333333333335,21,all
163_163_pomper_saffran_2016_46,6,163,pomper_saffran_2016,46,yellow,yellow,target,106,0,1,0.7264150943396226,1,NA,1,NA,0,3533.3333333333335,3533.3333333333335,3533.3333333333335,21,all
163_163_pomper_saffran_2016_46,7,163,pomper_saffran_2016,46,blue,blue,target,60,44,0.5769230769230769,NA,2,NA,0,NA,2,1000.0000000000001,1033.3333333333335,1033.3333333333335,21,all
163_163_pomper_saffran_2016_46,8,163,pomper_saffran_2016,46,white,white,target,106,0,1,0.7735849056603774,1,NA,1,NA,0,3533.3333333333335,3533.3333333333335,3533.3333333333335,21,all
164_164_pomper_saffran_2016_45,9,164,pomper_saffran_2016,45,red,red,distractor,106,0,1,NA,1,1,NA,15,0,3533.3333333333335,3533.3333333333335,3533.3333333333335,20,all
164_164_pomper_saffran_2016_45,10,164,pomper_saffran_2016,45,orange,orange,distractor,76,20,0.7916666666666666,NA,2,1,NA,340,0,1266.6666666666667,1666.6666666666667,1666.6666666666667,20,all
164_164_pomper_saffran_2016_45,11,164,pomper_saffran_2016,45,yellow,yellow,distractor,27,77,0.25961538461538464,-0.22641509433962265,1,0,NA,NA,1,900.0000000000001,900.0000000000001,900.0000000000001,20,all
164_164_pomper_saffran_2016_45,12,164,pomper_saffran_2016,45,white,white,distractor,63,36,0.6363636363636364,NA,2,1,NA,690,3,1050,1000.0000000000001,1100,20,all
164_164_pomper_saffran_2016_45,13,164,pomper_saffran_2016,45,black,black,distractor,50,51,0.49504950495049505,-0.2547169811320754,2,1,NA,715,3,833.3333333333334,1166.6666666666667,1166.6666666666667,20,all
164_164_pomper_saffran_2016_45,16,164,pomper_saffran_2016,45,orange,orange,distractor,21,82,0.20388349514563106,NA,1,0,NA,NA,2,700,700,700,20,all
165_165_pomper_saffran_2016_46,1,165,pomper_saffran_2016,46,black,black,neither,54,0,1,NA,2,NA,NA,NA,0,900,1200,1200,21,all
165_165_pomper_saffran_2016_46,2,165,pomper_saffran_2016,46,white,white,neither,61,14,0.8133333333333334,0.5754716981132075,2,NA,NA,NA,2,1016.6666666666667,1300,1300,21,all
165_165_pomper_saffran_2016_46,4,165,pomper_saffran_2016,46,blue,blue,target,59,32,0.6483516483516484,NA,2,NA,0,NA,2,883.3333333333334,933.3333333333334,933.3333333333334,21,all
165_165_pomper_saffran_2016_46,5,165,pomper_saffran_2016,46,brown,brown,target,63,0,1,0.46226415094339623,1,NA,1,NA,0,2100,2100,2100,21,all
165_165_pomper_saffran_2016_46,6,165,pomper_saffran_2016,46,blue,blue,target,57,23,0.7125,NA,1,NA,1,NA,1,1900.0000000000002,1900.0000000000002,1900.0000000000002,21,all
165_165_pomper_saffran_2016_46,7,165,pomper_saffran_2016,46,red,red,distractor,61,7,0.8970588235294118,NA,1,1,NA,215,0,2033.3333333333335,2033.3333333333335,2033.3333333333335,21,all
166_166_pomper_saffran_2016_47,9,166,pomper_saffran_2016,47,orange,orange,target,106,0,1,NA,1,NA,1,NA,0,3533.3333333333335,3533.3333333333335,3533.3333333333335,22,all
166_166_pomper_saffran_2016_47,10,166,pomper_saffran_2016,47,red,red,distractor,101,3,0.9711538461538461,NA,1,1,NA,140,0,3366.666666666667,3366.666666666667,3366.666666666667,22,all
166_166_pomper_saffran_2016_47,11,166,pomper_saffran_2016,47,yellow,yellow,distractor,103,0,1,0.7075471698113207,1,1,NA,90,0,3433.3333333333335,3433.3333333333335,3433.3333333333335,22,all
166_166_pomper_saffran_2016_47,12,166,pomper_saffran_2016,47,white,white,target,100,2,0.9803921568627451,0.679245283018868,1,NA,1,NA,0,3333.3333333333335,3333.3333333333335,3333.3333333333335,22,all
166_166_pomper_saffran_2016_47,13,166,pomper_saffran_2016,47,red,red,distractor,103,1,0.9903846153846154,NA,1,1,NA,90,0,3433.3333333333335,3433.3333333333335,3433.3333333333335,22,all
166_166_pomper_saffran_2016_47,14,166,pomper_saffran_2016,47,black,black,distractor,75,28,0.7281553398058253,0.7075471698113207,1,1,NA,790,1,2500,2500,2500,22,all
166_166_pomper_saffran_2016_47,15,166,pomper_saffran_2016,47,orange,orange,target,95,0,1,NA,2,NA,1,NA,0,1583.3333333333335,2433.3333333333335,2433.3333333333335,22,all
166_166_pomper_saffran_2016_47,16,166,pomper_saffran_2016,47,brown,brown,distractor,77,28,0.7333333333333333,0.7075471698113207,1,1,NA,740,1,2566.666666666667,2566.666666666667,2566.666666666667,22,all
167_167_pomper_saffran_2016_46,1,167,pomper_saffran_2016,46,green,green,distractor,91,12,0.883495145631068,NA,1,1,NA,390,1,3033.3333333333335,3033.3333333333335,3033.3333333333335,21,all
167_167_pomper_saffran_2016_46,2,167,pomper_saffran_2016,46,blue,blue,target,106,0,1,NA,1,NA,1,NA,0,3533.3333333333335,3533.3333333333335,3533.3333333333335,21,all
167_167_pomper_saffran_2016_46,3,167,pomper_saffran_2016,46,black,black,target,106,0,1,0.9716981132075472,1,NA,1,NA,0,3533.3333333333335,3533.3333333333335,3533.3333333333335,21,all
167_167_pomper_saffran_2016_46,4,167,pomper_saffran_2016,46,brown,brown,distractor,91,12,0.883495145631068,0.78301886792452835,1,1,NA,390,1,3033.3333333333335,3033.3333333333335,3033.3333333333335,21,all
167_167_pomper_saffran_2016_46,5,167,pomper_saffran_2016,46,yellow,yellow,distractor,102,3,0.9714285714285714,0.9622641509433962,1,1,NA,115,0,3400.0000000000005,3400.0000000000005,3400.0000000000005,21,all
167_167_pomper_saffran_2016_46,6,167,pomper_saffran_2016,46,green,green,target,97,8,0.9238095238095239,NA,1,NA,0,NA,0,3233.3333333333335,3233.3333333333335,3233.3333333333335,21,all
167_167_pomper_saffran_2016_46,7,167,pomper_saffran_2016,46,white,white,target,93,8,0.9207920792079208,0.7641509433962265,1,NA,0,NA,0,3100,3100,3100,21,all
167_167_pomper_saffran_2016_46,8,167,pomper_saffran_2016,46,blue,blue,distractor,106,0,1,NA,1,1,NA,15,0,3533.3333333333335,3533.3333333333335,3533.3333333333335,21,all
439_769_swingley_aslin_2002_15,2,439,swingley_aslin_2002,15,opple,opple,distractor,55,49,0.5288461538461539,NA,1,1,NA,1290,1,1833.3333333333335,1833.3333333333335,1833.3333333333335,-10,all
439_769_swingley_aslin_2002_15,3,439,swingley_aslin_2002,15,pity,pity,distractor,0,106,0,NA,NA,0,NA,NA,0,NA,NA,NA,-10,all
439_769_swingley_aslin_2002_15,5,439,swingley_aslin_2002,15,tog,tog,target,60,45,0.5714285714285714,NA,1,NA,1,NA,1,2000.0000000000002,2000.0000000000002,2000.0000000000002,-10,all
439_769_swingley_aslin_2002_15,9,439,swingley_aslin_2002,15,cur,cur,target,44,58,0.43137254901960786,NA,2,NA,0,NA,2,733.3333333333334,966.6666666666667,966.6666666666667,-10,all
439_769_swingley_aslin_2002_15,10,439,swingley_aslin_2002,15,vaby,vaby,target,106,0,1,NA,1,NA,1,NA,0,3533.3333333333335,3533.3333333333335,3533.3333333333335,-10,all
439_769_swingley_aslin_2002_15,11,439,swingley_aslin_2002,15,gall,gall,distractor,26,76,0.2549019607843137,NA,1,1,NA,440,2,866.6666666666667,866.6666666666667,866.6666666666667,-10,all
439_769_swingley_aslin_2002_15,17,439,swingley_aslin_2002,15,gall,gall,distractor,45,59,0.4326923076923077,NA,1,1,NA,15,1,1200,1200,1200,-10,all
439_769_swingley_aslin_2002_15,18,439,swingley_aslin_2002,15,vaby,vaby,target,106,0,1,NA,1,NA,1,NA,0,3533.3333333333335,3533.3333333333335,3533.3333333333335,-10,all
439_769_swingley_aslin_2002_15,20,439,swingley_aslin_2002,15,tog,tog,distractor,94,11,0.8952380952380953,NA,1,1,NA,315,0,3133.3333333333335,3133.3333333333335,3133.3333333333335,-10,all
439_769_swingley_aslin_2002_15,23,439,swingley_aslin_2002,15,cur,cur,target,106,0,1,NA,1,NA,1,NA,0,3533.3333333333335,3533.3333333333335,3533.3333333333335,-10,all
439_769_swingley_aslin_2002_15,25,439,swingley_aslin_2002,15,pity,pity,target,86,16,0.8431372549019608,NA,2,NA,0,NA,2,1433.3333333333335,500.00000000000006,2366.666666666667,-10,all
440_770_swingley_aslin_2002_15,1,440,swingley_aslin_2002,15,pity,pity,distractor,0,105,0,NA,NA,0,NA,NA,0,NA,NA,NA,-10,all
440_770_swingley_aslin_2002_15,3,440,swingley_aslin_2002,15,cur,cur,distractor,84,15,0.8484848484848485,NA,2,1,NA,440,1,1400,2333.3333333333335,2333.3333333333335,-10,all
440_770_swingley_aslin_2002_15,6,440,swingley_aslin_2002,15,tog,tog,target,83,0,1,NA,2,NA,1,NA,0,1383.3333333333335,1200,1566.6666666666667,-10,all
440_770_swingley_aslin_2002_15,8,440,swingley_aslin_2002,15,vaby,vaby,distractor,43,55,0.4387755102040816,NA,1,0,NA,NA,1,1433.3333333333335,1433.3333333333335,1433.3333333333335,-10,all
440_770_swingley_aslin_2002_15,9,440,swingley_aslin_2002,15,gall,gall,target,7,93,0.07,NA,NA,NA,0,NA,0,NA,233.33333333333334,NA,-10,all
440_770_swingley_aslin_2002_15,12,440,swingley_aslin_2002,15,opple,opple,distractor,18,70,0.20454545454545456,NA,1,1,NA,1190,2,600,600,600,-10,all
440_770_swingley_aslin_2002_15,14,440,swingley_aslin_2002,15,cur,cur,distractor,71,23,0.7553191489361702,NA,2,1,NA,415,1,1183.3333333333335,1066.6666666666667,1300,-10,all
441_771_swingley_aslin_2002_15,1,441,swingley_aslin_2002,15,pity,pity,neither,58,40,0.5918367346938775,NA,2,NA,NA,NA,3,966.6666666666667,1000.0000000000001,1000.0000000000001,-10,all
441_771_swingley_aslin_2002_15,3,441,swingley_aslin_2002,15,cur,cur,distractor,37,65,0.3627450980392157,NA,1,0,NA,NA,1,1233.3333333333335,1233.3333333333335,1233.3333333333335,-10,all
441_771_swingley_aslin_2002_15,6,441,swingley_aslin_2002,15,tog,tog,distractor,48,55,0.46601941747572817,NA,1,1,NA,890,2,1600,1600,1600,-10,all
441_771_swingley_aslin_2002_15,8,441,swingley_aslin_2002,15,vaby,vaby,distractor,50,51,0.49504950495049505,NA,1,1,NA,215,1,1566.6666666666667,1566.6666666666667,1566.6666666666667,-10,all
441_771_swingley_aslin_2002_15,9,441,swingley_aslin_2002,15,gall,gall,distractor,74,29,0.7184466019417476,NA,1,1,NA,815,1,2466.666666666667,2466.666666666667,2466.666666666667,-10,all
441_771_swingley_aslin_2002_15,12,441,swingley_aslin_2002,15,opple,opple,distractor,71,33,0.6826923076923077,NA,1,1,NA,890,1,2366.666666666667,2366.666666666667,2366.666666666667,-10,all
441_771_swingley_aslin_2002_15,14,441,swingley_aslin_2002,15,cur,cur,distractor,95,9,0.9134615384615384,NA,1,1,NA,290,0,3166.666666666667,3166.666666666667,3166.666666666667,-10,all
441_771_swingley_aslin_2002_15,16,441,swingley_aslin_2002,15,gall,gall,target,51,54,0.4857142857142857,NA,1,NA,0,NA,1,1700.0000000000002,1700.0000000000002,1700.0000000000002,-10,all
441_771_swingley_aslin_2002_15,17,441,swingley_aslin_2002,15,vaby,vaby,target,106,0,1,NA,1,NA,1,NA,0,3533.3333333333335,3533.3333333333335,3533.3333333333335,-10,all
442_772_swingley_aslin_2002_15,1,442,swingley_aslin_2002,15,pity,pity,target,57,47,0.5480769230769231,NA,1,NA,0,NA,1,1733.3333333333335,1733.3333333333335,1733.3333333333335,-10,all
442_772_swingley_aslin_2002_15,6,442,swingley_aslin_2002,15,tog,tog,distractor,53,48,0.5247524752475248,NA,1,1,NA,1215,1,1766.6666666666667,1766.6666666666667,1766.6666666666667,-10,all
442_772_swingley_aslin_2002_15,8,442,swingley_aslin_2002,15,vaby,vaby,target,73,31,0.7019230769230769,NA,2,NA,0,NA,2,1216.6666666666667,1600,1600,-10,all
442_772_swingley_aslin_2002_15,9,442,swingley_aslin_2002,15,gall,gall,distractor,40,64,0.38461538461538464,NA,1,1,NA,1290,2,1333.3333333333335,1333.3333333333335,1333.3333333333335,-10,all
442_772_swingley_aslin_2002_15,12,442,swingley_aslin_2002,15,opple,opple,target,85,20,0.8095238095238095,NA,2,NA,0,NA,2,1416.6666666666667,1066.6666666666667,1766.6666666666667,-10,all
442_772_swingley_aslin_2002_15,16,442,swingley_aslin_2002,15,gall,gall,distractor,63,41,0.6057692307692307,NA,1,1,NA,1090,1,2100,2100,2100,-10,all
442_772_swingley_aslin_2002_15,17,442,swingley_aslin_2002,15,vaby,vaby,target,62,42,0.5961538461538461,NA,1,NA,0,NA,1,1833.3333333333335,233.33333333333334,1833.3333333333335,-10,all
442_772_swingley_aslin_2002_15,20,442,swingley_aslin_2002,15,tog,tog,neither,57,0,1,NA,1,NA,NA,NA,0,1900.0000000000002,1900.0000000000002,1900.0000000000002,-10,all
442_772_swingley_aslin_2002_15,22,442,swingley_aslin_2002,15,pity,pity,neither,42,23,0.6461538461538462,NA,1,NA,NA,NA,1,1400,1400,1400,-10,all
443_773_swingley_aslin_2002_16,48,443,swingley_aslin_2002,16,opal,opal,neither,29,34,0.4603174603174603,NA,1,NA,NA,NA,1,966.6666666666667,966.6666666666667,966.6666666666667,-9,all
443_773_swingley_aslin_2002_16,49,443,swingley_aslin_2002,16,yitty,yitty,distractor,34,68,0.3333333333333333,NA,1,1,NA,790,2,1133.3333333333335,1133.3333333333335,1133.3333333333335,-9,all
443_773_swingley_aslin_2002_16,50,443,swingley_aslin_2002,16,mog,mog,target,12,93,0.11428571428571428,NA,1,NA,0,NA,1,400,400,400,-9,all
443_773_swingley_aslin_2002_16,51,443,swingley_aslin_2002,16,kier,kier,target,31,72,0.30097087378640774,NA,2,NA,0,NA,2,516.6666666666667,566.6666666666667,566.6666666666667,-9,all
443_773_swingley_aslin_2002_16,52,443,swingley_aslin_2002,16,raby,raby,target,61,41,0.5980392156862745,NA,1,NA,1,NA,1,2033.3333333333335,2033.3333333333335,2033.3333333333335,-9,all
443_773_swingley_aslin_2002_16,53,443,swingley_aslin_2002,16,shawl,shawl,distractor,34,71,0.3238095238095238,NA,1,0,NA,NA,1,1133.3333333333335,1133.3333333333335,1133.3333333333335,-9,all
443_773_swingley_aslin_2002_16,54,443,swingley_aslin_2002,16,opal,opal,target,93,10,0.9029126213592233,NA,2,NA,0,NA,0,1550,1633.3333333333335,1633.3333333333335,-9,all
443_773_swingley_aslin_2002_16,55,443,swingley_aslin_2002,16,shawl,shawl,target,76,28,0.7307692307692307,NA,2,NA,0,NA,2,1266.6666666666667,633.3333333333334,1900.0000000000002,-9,all
443_773_swingley_aslin_2002_16,56,443,swingley_aslin_2002,16,raby,raby,neither,60,44,0.5769230769230769,NA,1,NA,NA,NA,2,2000.0000000000002,2000.0000000000002,2000.0000000000002,-9,all
443_773_swingley_aslin_2002_16,57,443,swingley_aslin_2002,16,mog,mog,distractor,69,36,0.6571428571428571,NA,1,1,NA,940,1,2300,2300,2300,-9,all
443_773_swingley_aslin_2002_16,58,443,swingley_aslin_2002,16,kier,kier,distractor,0,106,0,NA,NA,0,NA,NA,0,NA,NA,NA,-9,all
443_773_swingley_aslin_2002_16,59,443,swingley_aslin_2002,16,yitty,yitty,target,91,13,0.875,NA,1,NA,1,NA,1,3033.3333333333335,3033.3333333333335,3033.3333333333335,-9,all
444_774_swingley_aslin_2002_15,49,444,swingley_aslin_2002,15,yitty,yitty,target,95,11,0.8962264150943396,NA,2,NA,0,NA,0,1583.3333333333335,1633.3333333333335,1633.3333333333335,-10,all
444_774_swingley_aslin_2002_15,50,444,swingley_aslin_2002,15,mog,mog,distractor,2,103,0.01904761904761905,NA,NA,0,NA,NA,0,NA,NA,NA,-10,all
444_774_swingley_aslin_2002_15,51,444,swingley_aslin_2002,15,kier,kier,distractor,12,92,0.11538461538461539,NA,1,0,NA,NA,1,400,400,400,-10,all
444_774_swingley_aslin_2002_15,52,444,swingley_aslin_2002,15,raby,raby,neither,56,47,0.5436893203883495,NA,1,NA,NA,NA,1,1866.6666666666667,1866.6666666666667,1866.6666666666667,-10,all
444_774_swingley_aslin_2002_15,53,444,swingley_aslin_2002,15,shawl,shawl,distractor,24,81,0.22857142857142856,NA,1,1,NA,1215,2,800,800,800,-10,all
444_774_swingley_aslin_2002_15,54,444,swingley_aslin_2002,15,opal,opal,distractor,38,60,0.3877551020408163,NA,1,1,NA,940,2,1266.6666666666667,1266.6666666666667,1266.6666666666667,-10,all
444_774_swingley_aslin_2002_15,58,444,swingley_aslin_2002,15,kier,kier,neither,38,66,0.36538461538461536,NA,2,NA,NA,NA,3,633.3333333333334,800,800,-10,all
444_774_swingley_aslin_2002_15,59,444,swingley_aslin_2002,15,yitty,yitty,neither,58,45,0.5631067961165048,NA,2,NA,NA,NA,1,866.6666666666667,633.3333333333334,1100,-10,all
445_775_swingley_aslin_2002_15,34,445,swingley_aslin_2002,15,yitty,yitty,target,73,22,0.7684210526315789,NA,1,NA,1,NA,1,2433.3333333333335,2433.3333333333335,2433.3333333333335,-10,all
445_775_swingley_aslin_2002_15,35,445,swingley_aslin_2002,15,kier,kier,distractor,0,106,0,NA,NA,0,NA,NA,0,NA,NA,NA,-10,all
445_775_swingley_aslin_2002_15,36,445,swingley_aslin_2002,15,mog,mog,target,106,0,1,NA,1,NA,1,NA,0,3533.3333333333335,3533.3333333333335,3533.3333333333335,-10,all
445_775_swingley_aslin_2002_15,37,445,swingley_aslin_2002,15,raby,raby,distractor,37,66,0.3592233009708738,NA,1,1,NA,1090,2,1233.3333333333335,1233.3333333333335,1233.3333333333335,-10,all
445_775_swingley_aslin_2002_15,38,445,swingley_aslin_2002,15,shawl,shawl,distractor,0,99,0,NA,NA,0,NA,NA,0,NA,NA,NA,-10,all
445_775_swingley_aslin_2002_15,39,445,swingley_aslin_2002,15,opal,opal,distractor,34,68,0.3333333333333333,NA,1,1,NA,1190,2,1066.6666666666667,1066.6666666666667,1066.6666666666667,-10,all
445_775_swingley_aslin_2002_15,40,445,swingley_aslin_2002,15,shawl,shawl,target,75,24,0.7575757575757576,NA,2,NA,0,NA,2,1150,1433.3333333333335,1433.3333333333335,-10,all
445_775_swingley_aslin_2002_15,41,445,swingley_aslin_2002,15,raby,raby,target,86,17,0.8349514563106796,NA,2,NA,0,NA,2,1433.3333333333335,500.00000000000006,2366.666666666667,-10,all
445_775_swingley_aslin_2002_15,42,445,swingley_aslin_2002,15,kier,kier,distractor,0,106,0,NA,NA,0,NA,NA,0,NA,NA,NA,-10,all
445_775_swingley_aslin_2002_15,43,445,swingley_aslin_2002,15,mog,mog,target,72,33,0.6857142857142857,NA,1,NA,1,NA,1,2400,2400,2400,-10,all
445_775_swingley_aslin_2002_15,44,445,swingley_aslin_2002,15,yitty,yitty,target,106,0,1,NA,1,NA,1,NA,0,3533.3333333333335,3533.3333333333335,3533.3333333333335,-10,all
445_775_swingley_aslin_2002_15,45,445,swingley_aslin_2002,15,opal,opal,neither,41,19,0.6833333333333333,NA,1,NA,NA,NA,1,1366.6666666666667,1366.6666666666667,1366.6666666666667,-10,all
446_776_swingley_aslin_2002_14,34,446,swingley_aslin_2002,14,yitty,yitty,target,68,34,0.6666666666666666,NA,2,NA,0,NA,2,1133.3333333333335,1500,1500,-11,all
446_776_swingley_aslin_2002_14,35,446,swingley_aslin_2002,14,kier,kier,target,68,37,0.6476190476190476,NA,1,NA,1,NA,1,2266.666666666667,2266.666666666667,2266.666666666667,-11,all
446_776_swingley_aslin_2002_14,36,446,swingley_aslin_2002,14,mog,mog,neither,0,98,0,NA,NA,NA,NA,NA,0,NA,NA,NA,-11,all
446_776_swingley_aslin_2002_14,37,446,swingley_aslin_2002,14,raby,raby,target,106,0,1,NA,1,NA,1,NA,0,3533.3333333333335,3533.3333333333335,3533.3333333333335,-11,all
446_776_swingley_aslin_2002_14,38,446,swingley_aslin_2002,14,shawl,shawl,target,92,13,0.8761904761904762,NA,1,NA,1,NA,1,3066.666666666667,3066.666666666667,3066.666666666667,-11,all
446_776_swingley_aslin_2002_14,39,446,swingley_aslin_2002,14,opal,opal,target,100,0,1,NA,2,NA,1,NA,0,1666.6666666666667,1966.6666666666667,1966.6666666666667,-11,all
446_776_swingley_aslin_2002_14,40,446,swingley_aslin_2002,14,shawl,shawl,distractor,0,106,0,NA,NA,0,NA,NA,0,NA,NA,NA,-11,all
446_776_swingley_aslin_2002_14,41,446,swingley_aslin_2002,14,raby,raby,distractor,35,69,0.33653846153846156,NA,1,1,NA,1340,2,1166.6666666666667,1166.6666666666667,1166.6666666666667,-11,all
446_776_swingley_aslin_2002_14,42,446,swingley_aslin_2002,14,kier,kier,target,106,0,1,NA,1,NA,1,NA,0,3533.3333333333335,3533.3333333333335,3533.3333333333335,-11,all
446_776_swingley_aslin_2002_14,43,446,swingley_aslin_2002,14,mog,mog,target,106,0,1,NA,1,NA,1,NA,0,3533.3333333333335,3533.3333333333335,3533.3333333333335,-11,all
446_776_swingley_aslin_2002_14,44,446,swingley_aslin_2002,14,yitty,yitty,neither,27,34,0.4426229508196721,NA,1,NA,NA,NA,1,900.0000000000001,900.0000000000001,900.0000000000001,-11,all
446_776_swingley_aslin_2002_14,45,446,swingley_aslin_2002,14,opal,opal,neither,65,11,0.8552631578947368,NA,1,NA,NA,NA,0,2166.666666666667,2166.666666666667,2166.666666666667,-11,all
447_777_swingley_aslin_2002_15,42,447,swingley_aslin_2002,15,yitty,yitty,target,33,71,0.3173076923076923,NA,1,NA,0,NA,1,966.6666666666667,966.6666666666667,966.6666666666667,-10,all
447_777_swingley_aslin_2002_15,46,447,swingley_aslin_2002,15,shawl,shawl,distractor,78,27,0.7428571428571429,NA,1,1,NA,715,1,2600,2600,2600,-10,all
447_777_swingley_aslin_2002_15,47,447,swingley_aslin_2002,15,raby,raby,target,87,18,0.8285714285714286,NA,1,NA,1,NA,1,2900,2900,2900,-10,all
447_777_swingley_aslin_2002_15,51,447,swingley_aslin_2002,15,yitty,yitty,distractor,0,106,0,NA,NA,0,NA,NA,0,NA,NA,NA,-10,all
447_777_swingley_aslin_2002_15,52,447,swingley_aslin_2002,15,mog,mog,distractor,63,41,0.6057692307692307,NA,1,1,NA,1090,1,2100,2100,2100,-10,all
447_777_swingley_aslin_2002_15,55,447,swingley_aslin_2002,15,shawl,shawl,target,106,0,1,NA,1,NA,1,NA,0,3533.3333333333335,3533.3333333333335,3533.3333333333335,-10,all
447_777_swingley_aslin_2002_15,58,447,swingley_aslin_2002,15,opal,opal,neither,36,44,0.45,NA,1,NA,NA,NA,2,900.0000000000001,900.0000000000001,900.0000000000001,-10,all
447_777_swingley_aslin_2002_15,59,447,swingley_aslin_2002,15,mog,mog,distractor,25,78,0.24271844660194175,NA,1,0,NA,NA,1,833.3333333333334,833.3333333333334,833.3333333333334,-10,all
447_777_swingley_aslin_2002_15,61,447,swingley_aslin_2002,15,raby,raby,neither,91,0,1,NA,1,NA,NA,NA,0,3033.3333333333335,3033.3333333333335,3033.3333333333335,-10,all
447_777_swingley_aslin_2002_15,63,447,swingley_aslin_2002,15,kier,kier,distractor,1,97,0.01020408163265306,NA,NA,0,NA,NA,0,NA,NA,NA,-10,all
448_778_swingley_aslin_2002_15,28,448,swingley_aslin_2002,15,yitty,yitty,distractor,24,79,0.23300970873786409,NA,1,1,NA,1140,2,466.6666666666667,466.6666666666667,466.6666666666667,-10,all
448_778_swingley_aslin_2002_15,37,448,swingley_aslin_2002,15,kier,kier,target,68,12,0.85,NA,1,NA,0,NA,1,2100,2100,2100,-10,all
448_778_swingley_aslin_2002_15,71,448,swingley_aslin_2002,15,kier,kier,distractor,40,60,0.4,NA,2,1,NA,190,3,666.6666666666667,833.3333333333334,833.3333333333334,-10,all
448_778_swingley_aslin_2002_15,74,448,swingley_aslin_2002,15,raby,raby,distractor,51,53,0.49038461538461536,NA,1,1,NA,1390,1,1700.0000000000002,1700.0000000000002,1700.0000000000002,-10,all
448_778_swingley_aslin_2002_15,76,448,swingley_aslin_2002,15,mog,mog,target,75,30,0.7142857142857143,NA,2,NA,1,NA,2,1250.0000000000002,2000.0000000000002,2000.0000000000002,-10,all
448_778_swingley_aslin_2002_15,79,448,swingley_aslin_2002,15,shawl,shawl,distractor,105,0,1,NA,1,1,NA,40,0,3500.0000000000005,3500.0000000000005,3500.0000000000005,-10,all
448_778_swingley_aslin_2002_15,81,448,swingley_aslin_2002,15,opal,opal,distractor,19,76,0.2,NA,1,1,NA,1315,2,633.3333333333334,633.3333333333334,633.3333333333334,-10,all
448_778_swingley_aslin_2002_15,82,448,swingley_aslin_2002,15,mog,mog,neither,64,5,0.927536231884058,NA,1,NA,NA,NA,0,2133.3333333333335,2133.3333333333335,2133.3333333333335,-10,all
448_778_swingley_aslin_2002_15,83,448,swingley_aslin_2002,15,yitty,yitty,distractor,23,83,0.2169811320754717,NA,1,0,NA,NA,1,766.6666666666667,766.6666666666667,766.6666666666667,-10,all
448_778_swingley_aslin_2002_15,87,448,swingley_aslin_2002,15,raby,raby,target,45,59,0.4326923076923077,NA,1,NA,0,NA,1,1466.6666666666667,1466.6666666666667,1466.6666666666667,-10,all
449_779_swingley_aslin_2002_14,55,449,swingley_aslin_2002,14,kier,kier,distractor,50,55,0.47619047619047616,NA,1,1,NA,1415,1,1666.6666666666667,1666.6666666666667,1666.6666666666667,-11,all
449_779_swingley_aslin_2002_14,92,449,swingley_aslin_2002,14,raby,raby,target,18,86,0.17307692307692307,NA,1,NA,0,NA,1,466.6666666666667,466.6666666666667,466.6666666666667,-11,all
449_779_swingley_aslin_2002_14,94,449,swingley_aslin_2002,14,mog,mog,target,106,0,1,NA,1,NA,1,NA,0,3533.3333333333335,3533.3333333333335,3533.3333333333335,-11,all
449_779_swingley_aslin_2002_14,97,449,swingley_aslin_2002,14,shawl,shawl,target,92,13,0.8761904761904762,NA,1,NA,1,NA,1,3066.666666666667,3066.666666666667,3066.666666666667,-11,all
449_779_swingley_aslin_2002_14,99,449,swingley_aslin_2002,14,opal,opal,distractor,10,92,0.09803921568627451,NA,NA,1,NA,990,0,NA,333.33333333333337,NA,-11,all
449_779_swingley_aslin_2002_14,100,449,swingley_aslin_2002,14,mog,mog,target,106,0,1,NA,1,NA,1,NA,0,3533.3333333333335,3533.3333333333335,3533.3333333333335,-11,all
449_779_swingley_aslin_2002_14,101,449,swingley_aslin_2002,14,yitty,yitty,distractor,23,81,0.22115384615384615,NA,1,0,NA,NA,1,766.6666666666667,766.6666666666667,766.6666666666667,-11,all
449_779_swingley_aslin_2002_14,105,449,swingley_aslin_2002,14,raby,raby,distractor,55,49,0.5288461538461539,NA,1,1,NA,515,2,1833.3333333333335,1833.3333333333335,1833.3333333333335,-11,all
449_779_swingley_aslin_2002_14,108,449,swingley_aslin_2002,14,opal,opal,target,77,27,0.7403846153846154,NA,2,NA,0,NA,2,1283.3333333333335,533.3333333333334,2033.3333333333335,-11,all
