recording_name,trial_number,subject_id,dataset_name,age_months,target_word,yoked_target,yoked_distractor,yoked_pair,media_name,initial_look,samples_target,samples_distractor,prop_looking,prop_looking_diff,number_fixations,correct_shift,remain_on_target,latency_to_switch,total_aoi_switches,duration_of_look,first_look_dur,longest_look_by_trial,age_months_centred,data_split
108_108_pomper_saffran_2016_46,4,108,pomper_saffran_2016,46,white,white,brown,brown-white,white,distractor,77,22,0.7777777777777778,NA,1,1,NA,615,1,2566.666666666667,2566.666666666667,2566.666666666667,21,distractor
108_108_pomper_saffran_2016_46,5,108,pomper_saffran_2016,46,red,red,green,green-red,red,distractor,101,3,0.9711538461538461,NA,1,1,NA,140,0,3366.666666666667,3366.666666666667,3366.666666666667,21,distractor
108_108_pomper_saffran_2016_46,6,108,pomper_saffran_2016,46,black,black,yellow,black-yellow,black,distractor,69,36,0.6571428571428571,NA,1,1,NA,940,1,2300,2300,2300,21,distractor
109_109_pomper_saffran_2016_43,9,109,pomper_saffran_2016,43,green,green,red,green-red,green,distractor,88,9,0.9072164948453608,NA,2,1,NA,140,2,1466.6666666666667,1000.0000000000001,1933.3333333333335,18,distractor
109_109_pomper_saffran_2016_43,12,109,pomper_saffran_2016,43,brown,brown,white,brown-white,brown,distractor,86,17,0.8349514563106796,0.3584905660377359,1,1,NA,515,1,2866.666666666667,2866.666666666667,2866.666666666667,18,distractor
109_109_pomper_saffran_2016_43,14,109,pomper_saffran_2016,43,green,green,red,green-red,green,distractor,91,12,0.883495145631068,NA,1,1,NA,390,1,3033.3333333333335,3033.3333333333335,3033.3333333333335,18,distractor
109_109_pomper_saffran_2016_43,15,109,pomper_saffran_2016,43,white,white,brown,brown-white,white,distractor,54,48,0.5294117647058824,0.34905660377358494,1,1,NA,540,2,1800.0000000000002,1800.0000000000002,1800.0000000000002,18,distractor
109_109_pomper_saffran_2016_43,16,109,pomper_saffran_2016,43,blue,blue,orange,blue-orange,blue,distractor,101,3,0.9711538461538461,NA,1,1,NA,140,0,3366.666666666667,3366.666666666667,3366.666666666667,18,distractor
110_110_pomper_saffran_2016_47,3,110,pomper_saffran_2016,47,black,black,yellow,black-yellow,black,distractor,70,33,0.6796116504854369,0.660377358490566,1,1,NA,915,1,2333.3333333333335,2333.3333333333335,2333.3333333333335,22,distractor
110_110_pomper_saffran_2016_47,4,110,pomper_saffran_2016,47,brown,brown,white,brown-white,brown,distractor,98,4,0.9607843137254902,NA,1,1,NA,215,0,3266.666666666667,3266.666666666667,3266.666666666667,22,distractor
110_110_pomper_saffran_2016_47,6,110,pomper_saffran_2016,47,yellow,yellow,black,black-yellow,yellow,distractor,103,0,1,0.6603773584905661,1,1,NA,90,0,3433.3333333333335,3433.3333333333335,3433.3333333333335,22,distractor
110_110_pomper_saffran_2016_47,7,110,pomper_saffran_2016,47,blue,blue,orange,blue-orange,blue,distractor,105,0,1,NA,1,1,NA,40,0,3500.0000000000005,3500.0000000000005,3500.0000000000005,22,distractor
111_111_pomper_saffran_2016_42,9,111,pomper_saffran_2016,42,red,red,green,green-red,red,distractor,86,17,0.8349514563106796,NA,1,1,NA,515,1,2866.666666666667,2866.666666666667,2866.666666666667,17,distractor
111_111_pomper_saffran_2016_42,13,111,pomper_saffran_2016,42,black,black,yellow,black-yellow,black,distractor,68,26,0.723404255319149,NA,1,1,NA,340,2,2266.666666666667,2266.666666666667,2266.666666666667,17,distractor
111_111_pomper_saffran_2016_42,16,111,pomper_saffran_2016,42,orange,orange,blue,blue-orange,orange,distractor,28,66,0.2978723404255319,NA,2,1,NA,390,2,466.6666666666667,600,600,17,distractor
112_112_pomper_saffran_2016_43,2,112,pomper_saffran_2016,43,red,red,green,green-red,red,distractor,92,11,0.8932038834951457,NA,1,1,NA,15,1,3066.666666666667,3066.666666666667,3066.666666666667,18,distractor
112_112_pomper_saffran_2016_43,3,112,pomper_saffran_2016,43,yellow,yellow,black,black-yellow,yellow,distractor,61,0,1,0.5754716981132075,1,1,NA,90,0,2033.3333333333335,2033.3333333333335,2033.3333333333335,18,distractor
112_112_pomper_saffran_2016_43,4,112,pomper_saffran_2016,43,white,white,brown,brown-white,white,distractor,45,33,0.5769230769230769,0.28301886792452835,1,1,NA,115,1,1500,1500,1500,18,distractor
112_112_pomper_saffran_2016_43,6,112,pomper_saffran_2016,43,black,black,yellow,black-yellow,black,distractor,105,0,1,0.9905660377358491,1,1,NA,40,0,3500.0000000000005,3500.0000000000005,3500.0000000000005,18,distractor
112_112_pomper_saffran_2016_43,8,112,pomper_saffran_2016,43,brown,brown,white,brown-white,brown,distractor,75,15,0.8333333333333334,0.3962264150943396,1,1,NA,140,1,2500,2500,2500,18,distractor
113_113_pomper_saffran_2016_42,1,113,pomper_saffran_2016,42,green,green,red,green-red,green,distractor,87,16,0.8446601941747572,NA,1,1,NA,490,1,2900,2900,2900,17,distractor
113_113_pomper_saffran_2016_42,2,113,pomper_saffran_2016,42,blue,blue,orange,blue-orange,blue,distractor,67,13,0.8375,NA,1,1,NA,415,1,2233.3333333333335,2233.3333333333335,2233.3333333333335,17,distractor
113_113_pomper_saffran_2016_42,3,113,pomper_saffran_2016,42,black,black,yellow,black-yellow,black,distractor,83,20,0.8058252427184466,NA,1,1,NA,590,1,2766.666666666667,2766.666666666667,2766.666666666667,17,distractor
113_113_pomper_saffran_2016_42,4,113,pomper_saffran_2016,42,brown,brown,white,brown-white,brown,distractor,40,34,0.5405405405405406,NA,1,1,NA,190,1,1333.3333333333335,1333.3333333333335,1333.3333333333335,17,distractor
114_114_pomper_saffran_2016_42,10,114,pomper_saffran_2016,42,blue,blue,orange,blue-orange,blue,distractor,41,63,0.3942307692307692,NA,1,0,NA,NA,1,1366.6666666666667,1366.6666666666667,1366.6666666666667,17,distractor
114_114_pomper_saffran_2016_42,13,114,pomper_saffran_2016,42,yellow,yellow,black,black-yellow,yellow,distractor,91,12,0.883495145631068,NA,1,1,NA,390,1,3033.3333333333335,3033.3333333333335,3033.3333333333335,17,distractor
114_114_pomper_saffran_2016_42,14,114,pomper_saffran_2016,42,green,green,red,green-red,green,distractor,91,12,0.883495145631068,NA,1,1,NA,390,1,3033.3333333333335,3033.3333333333335,3033.3333333333335,17,distractor
114_114_pomper_saffran_2016_42,15,114,pomper_saffran_2016,42,white,white,brown,brown-white,white,distractor,89,15,0.8557692307692307,NA,1,1,NA,440,1,2966.666666666667,2966.666666666667,2966.666666666667,17,distractor
115_115_pomper_saffran_2016_42,9,115,pomper_saffran_2016,42,orange,orange,blue,blue-orange,orange,distractor,89,15,0.8557692307692307,NA,1,1,NA,440,1,2966.666666666667,2966.666666666667,2966.666666666667,17,distractor
115_115_pomper_saffran_2016_42,10,115,pomper_saffran_2016,42,red,red,green,green-red,red,distractor,82,21,0.7961165048543689,NA,1,1,NA,615,1,2733.3333333333335,2733.3333333333335,2733.3333333333335,17,distractor
115_115_pomper_saffran_2016_42,11,115,pomper_saffran_2016,42,yellow,yellow,black,black-yellow,yellow,distractor,82,21,0.7961165048543689,0.339622641509434,1,1,NA,615,1,2733.3333333333335,2733.3333333333335,2733.3333333333335,17,distractor
115_115_pomper_saffran_2016_42,12,115,pomper_saffran_2016,42,white,white,brown,brown-white,white,distractor,66,32,0.673469387755102,NA,1,1,NA,340,2,2200,2200,2200,17,distractor
115_115_pomper_saffran_2016_42,14,115,pomper_saffran_2016,42,black,black,yellow,black-yellow,black,distractor,51,46,0.5257731958762887,0.2830188679245283,1,1,NA,815,2,1700.0000000000002,1700.0000000000002,1700.0000000000002,17,distractor
116_116_pomper_saffran_2016_45,2,116,pomper_saffran_2016,45,orange,orange,blue,blue-orange,orange,distractor,96,1,0.9896907216494846,NA,1,1,NA,115,0,3200,3200,3200,20,distractor
116_116_pomper_saffran_2016_45,3,116,pomper_saffran_2016,45,yellow,yellow,black,black-yellow,yellow,distractor,101,3,0.9711538461538461,0.37735849056603776,1,1,NA,140,0,3366.666666666667,3366.666666666667,3366.666666666667,20,distractor
116_116_pomper_saffran_2016_45,4,116,pomper_saffran_2016,45,white,white,brown,brown-white,white,distractor,101,0,1,0.6415094339622642,1,1,NA,140,0,3366.666666666667,3366.666666666667,3366.666666666667,20,distractor
116_116_pomper_saffran_2016_45,5,116,pomper_saffran_2016,45,black,black,yellow,black-yellow,black,distractor,43,61,0.41346153846153844,0.37735849056603776,1,1,NA,15,1,1433.3333333333335,1433.3333333333335,1433.3333333333335,20,distractor
116_116_pomper_saffran_2016_45,7,116,pomper_saffran_2016,45,brown,brown,white,brown-white,brown,distractor,61,33,0.648936170212766,0.5754716981132075,2,1,NA,490,3,1016.6666666666667,1533.3333333333335,1533.3333333333335,20,distractor
117_117_pomper_saffran_2016_43,9,117,pomper_saffran_2016,43,blue,blue,orange,blue-orange,blue,distractor,99,4,0.9611650485436893,NA,1,1,NA,190,0,3300.0000000000005,3300.0000000000005,3300.0000000000005,18,distractor
117_117_pomper_saffran_2016_43,10,117,pomper_saffran_2016,43,green,green,red,green-red,green,distractor,102,1,0.9902912621359223,NA,1,1,NA,115,0,3400.0000000000005,3400.0000000000005,3400.0000000000005,18,distractor
117_117_pomper_saffran_2016_43,11,117,pomper_saffran_2016,43,black,black,yellow,black-yellow,black,distractor,93,11,0.8942307692307693,NA,1,1,NA,340,1,3100,3100,3100,18,distractor
117_117_pomper_saffran_2016_43,12,117,pomper_saffran_2016,43,brown,brown,white,brown-white,brown,distractor,99,4,0.9611650485436893,NA,1,1,NA,190,0,3300.0000000000005,3300.0000000000005,3300.0000000000005,18,distractor
118_118_pomper_saffran_2016_42,10,118,pomper_saffran_2016,42,orange,orange,blue,blue-orange,orange,distractor,83,17,0.83,NA,2,1,NA,15,2,1383.3333333333335,1633.3333333333335,1633.3333333333335,17,distractor
118_118_pomper_saffran_2016_42,13,118,pomper_saffran_2016,42,black,black,yellow,black-yellow,black,distractor,106,0,1,NA,1,1,NA,15,0,3533.3333333333335,3533.3333333333335,3533.3333333333335,17,distractor
118_118_pomper_saffran_2016_42,14,118,pomper_saffran_2016,42,red,red,green,green-red,red,distractor,93,9,0.9117647058823529,NA,1,1,NA,340,1,3100,3100,3100,17,distractor
118_118_pomper_saffran_2016_42,16,118,pomper_saffran_2016,42,orange,orange,blue,blue-orange,orange,distractor,36,20,0.6428571428571429,NA,2,1,NA,15,2,600,766.6666666666667,766.6666666666667,17,distractor
119_119_pomper_saffran_2016_43,3,119,pomper_saffran_2016,43,red,red,green,green-red,red,distractor,50,50,0.5,0.4056603773584906,1,1,NA,290,2,1666.6666666666667,1666.6666666666667,1666.6666666666667,18,distractor
119_119_pomper_saffran_2016_43,4,119,pomper_saffran_2016,43,blue,blue,orange,blue-orange,blue,distractor,94,9,0.912621359223301,NA,1,1,NA,315,1,3133.3333333333335,3133.3333333333335,3133.3333333333335,18,distractor
119_119_pomper_saffran_2016_43,5,119,pomper_saffran_2016,43,brown,brown,white,brown-white,brown,distractor,90,13,0.8737864077669902,NA,1,1,NA,415,1,3000,3000,3000,18,distractor
119_119_pomper_saffran_2016_43,8,119,pomper_saffran_2016,43,green,green,red,green-red,green,distractor,97,7,0.9326923076923077,0.44339622641509435,1,1,NA,240,0,3233.3333333333335,3233.3333333333335,3233.3333333333335,18,distractor
120_120_pomper_saffran_2016_42,9,120,pomper_saffran_2016,42,yellow,yellow,black,black-yellow,yellow,distractor,71,8,0.8987341772151899,NA,2,1,NA,290,1,1183.3333333333335,733.3333333333334,1633.3333333333335,17,distractor
120_120_pomper_saffran_2016_42,10,120,pomper_saffran_2016,42,brown,brown,white,brown-white,brown,distractor,51,51,0.5,0.169811320754717,1,1,NA,15,1,1700.0000000000002,1700.0000000000002,1700.0000000000002,17,distractor
120_120_pomper_saffran_2016_42,13,120,pomper_saffran_2016,42,white,white,brown,brown-white,white,distractor,62,33,0.6526315789473685,0.10377358490566035,1,1,NA,990,1,2066.666666666667,2066.666666666667,2066.666666666667,17,distractor
120_120_pomper_saffran_2016_42,15,120,pomper_saffran_2016,42,green,green,red,green-red,green,distractor,32,67,0.32323232323232326,NA,1,1,NA,640,2,1066.6666666666667,1066.6666666666667,1066.6666666666667,17,distractor
120_120_pomper_saffran_2016_42,16,120,pomper_saffran_2016,42,yellow,yellow,black,black-yellow,yellow,distractor,22,55,0.2857142857142857,NA,1,0,NA,NA,1,733.3333333333334,733.3333333333334,733.3333333333334,17,distractor
121_121_pomper_saffran_2016_42,1,121,pomper_saffran_2016,42,green,green,red,green-red,green,distractor,101,3,0.9711538461538461,NA,1,1,NA,140,0,3366.666666666667,3366.666666666667,3366.666666666667,17,distractor
121_121_pomper_saffran_2016_42,3,121,pomper_saffran_2016,42,black,black,yellow,black-yellow,black,distractor,93,11,0.8942307692307693,NA,1,1,NA,340,1,3100,3100,3100,17,distractor
121_121_pomper_saffran_2016_42,4,121,pomper_saffran_2016,42,brown,brown,white,brown-white,brown,distractor,102,1,0.9902912621359223,NA,1,1,NA,115,0,3400.0000000000005,3400.0000000000005,3400.0000000000005,17,distractor
121_121_pomper_saffran_2016_42,6,121,pomper_saffran_2016,42,green,green,red,green-red,green,distractor,95,8,0.9223300970873787,NA,1,1,NA,290,1,3166.666666666667,3166.666666666667,3166.666666666667,17,distractor
122_122_pomper_saffran_2016_44,1,122,pomper_saffran_2016,44,brown,brown,white,brown-white,brown,distractor,69,23,0.75,NA,2,1,NA,240,1,1150,666.6666666666667,1633.3333333333335,19,distractor
122_122_pomper_saffran_2016_44,3,122,pomper_saffran_2016,44,green,green,red,green-red,green,distractor,56,43,0.5656565656565656,NA,1,1,NA,715,2,1866.6666666666667,1866.6666666666667,1866.6666666666667,19,distractor
122_122_pomper_saffran_2016_44,6,122,pomper_saffran_2016,44,orange,orange,blue,blue-orange,orange,distractor,38,64,0.37254901960784315,NA,1,1,NA,1040,2,1266.6666666666667,1266.6666666666667,1266.6666666666667,19,distractor
122_122_pomper_saffran_2016_44,7,122,pomper_saffran_2016,44,yellow,yellow,black,black-yellow,yellow,distractor,82,20,0.803921568627451,NA,1,1,NA,615,1,2733.3333333333335,2733.3333333333335,2733.3333333333335,19,distractor
123_123_pomper_saffran_2016_43,9,123,pomper_saffran_2016,43,black,black,yellow,black-yellow,black,distractor,83,20,0.8058252427184466,NA,1,1,NA,590,1,2766.666666666667,2766.666666666667,2766.666666666667,18,distractor
123_123_pomper_saffran_2016_43,12,123,pomper_saffran_2016,43,blue,blue,orange,blue-orange,blue,distractor,74,29,0.7184466019417476,NA,1,1,NA,815,1,2466.666666666667,2466.666666666667,2466.666666666667,18,distractor
123_123_pomper_saffran_2016_43,15,123,pomper_saffran_2016,43,red,red,green,green-red,red,distractor,79,24,0.7669902912621359,NA,1,1,NA,690,1,2633.3333333333335,2633.3333333333335,2633.3333333333335,18,distractor
124_124_pomper_saffran_2016_42,2,124,pomper_saffran_2016,42,brown,brown,white,brown-white,brown,distractor,59,37,0.6145833333333334,NA,2,1,NA,190,2,983.3333333333335,1133.3333333333335,1133.3333333333335,17,distractor
124_124_pomper_saffran_2016_42,3,124,pomper_saffran_2016,42,red,red,green,green-red,red,distractor,62,7,0.8985507246376812,NA,2,1,NA,240,0,1033.3333333333335,1333.3333333333335,1333.3333333333335,17,distractor
124_124_pomper_saffran_2016_42,8,124,pomper_saffran_2016,42,yellow,yellow,black,black-yellow,yellow,distractor,94,9,0.912621359223301,NA,1,1,NA,315,1,3133.3333333333335,3133.3333333333335,3133.3333333333335,17,distractor
125_125_pomper_saffran_2016_43,10,125,pomper_saffran_2016,43,black,black,yellow,black-yellow,black,distractor,77,27,0.7403846153846154,NA,1,1,NA,740,1,2566.666666666667,2566.666666666667,2566.666666666667,18,distractor
125_125_pomper_saffran_2016_43,12,125,pomper_saffran_2016,43,blue,blue,orange,blue-orange,blue,distractor,101,3,0.9711538461538461,NA,1,1,NA,140,0,3366.666666666667,3366.666666666667,3366.666666666667,18,distractor
125_125_pomper_saffran_2016_43,13,125,pomper_saffran_2016,43,brown,brown,white,brown-white,brown,distractor,103,0,1,NA,1,1,NA,90,0,3433.3333333333335,3433.3333333333335,3433.3333333333335,18,distractor
125_125_pomper_saffran_2016_43,14,125,pomper_saffran_2016,43,blue,blue,orange,blue-orange,blue,distractor,102,0,1,NA,1,1,NA,115,0,3400.0000000000005,3400.0000000000005,3400.0000000000005,18,distractor
125_125_pomper_saffran_2016_43,16,125,pomper_saffran_2016,43,green,green,red,green-red,green,distractor,97,7,0.9326923076923077,NA,1,1,NA,240,0,3233.3333333333335,3233.3333333333335,3233.3333333333335,18,distractor
126_126_pomper_saffran_2016_44,1,126,pomper_saffran_2016,44,black,black,yellow,black-yellow,black,distractor,55,45,0.55,NA,2,1,NA,440,3,916.6666666666667,1400,1400,19,distractor
126_126_pomper_saffran_2016_44,2,126,pomper_saffran_2016,44,white,white,brown,brown-white,white,distractor,89,15,0.8557692307692307,NA,1,1,NA,440,1,2966.666666666667,2966.666666666667,2966.666666666667,19,distractor
126_126_pomper_saffran_2016_44,4,126,pomper_saffran_2016,44,blue,blue,orange,blue-orange,blue,distractor,97,7,0.9326923076923077,NA,1,1,NA,240,0,3233.3333333333335,3233.3333333333335,3233.3333333333335,19,distractor
126_126_pomper_saffran_2016_44,7,126,pomper_saffran_2016,44,red,red,green,green-red,red,distractor,49,50,0.494949494949495,NA,1,1,NA,515,2,1633.3333333333335,1633.3333333333335,1633.3333333333335,19,distractor
127_127_pomper_saffran_2016_41,9,127,pomper_saffran_2016,41,orange,orange,blue,blue-orange,orange,distractor,77,25,0.7549019607843137,NA,1,1,NA,740,1,2566.666666666667,2566.666666666667,2566.666666666667,16,distractor
127_127_pomper_saffran_2016_41,11,127,pomper_saffran_2016,41,yellow,yellow,black,black-yellow,yellow,distractor,98,5,0.9514563106796117,0.8018867924528302,1,1,NA,215,0,3266.666666666667,3266.666666666667,3266.666666666667,16,distractor
127_127_pomper_saffran_2016_41,12,127,pomper_saffran_2016,41,white,white,brown,brown-white,white,distractor,79,23,0.7745098039215687,0.5094339622641508,1,1,NA,690,1,2633.3333333333335,2633.3333333333335,2633.3333333333335,16,distractor
127_127_pomper_saffran_2016_41,13,127,pomper_saffran_2016,41,red,red,green,green-red,red,distractor,90,15,0.8571428571428571,NA,1,1,NA,415,1,3000,3000,3000,16,distractor
127_127_pomper_saffran_2016_41,14,127,pomper_saffran_2016,41,black,black,yellow,black-yellow,black,distractor,87,13,0.87,0.7735849056603774,1,1,NA,415,1,2900,2900,2900,16,distractor
127_127_pomper_saffran_2016_41,15,127,pomper_saffran_2016,41,orange,orange,blue,blue-orange,orange,distractor,55,42,0.5670103092783505,NA,1,1,NA,840,2,1833.3333333333335,1833.3333333333335,1833.3333333333335,16,distractor
127_127_pomper_saffran_2016_41,16,127,pomper_saffran_2016,41,brown,brown,white,brown-white,brown,distractor,78,25,0.7572815533980582,0.5188679245283019,1,1,NA,715,1,2600,2600,2600,16,distractor
128_128_pomper_saffran_2016_47,11,128,pomper_saffran_2016,47,green,green,red,green-red,green,distractor,90,13,0.8737864077669902,0.7641509433962265,1,1,NA,415,1,3000,3000,3000,22,distractor
128_128_pomper_saffran_2016_47,14,128,pomper_saffran_2016,47,orange,orange,blue,blue-orange,orange,distractor,98,5,0.9514563106796117,NA,1,1,NA,215,0,3266.666666666667,3266.666666666667,3266.666666666667,22,distractor
128_128_pomper_saffran_2016_47,16,128,pomper_saffran_2016,47,red,red,green,green-red,red,distractor,94,9,0.912621359223301,0.7641509433962265,1,1,NA,315,1,3133.3333333333335,3133.3333333333335,3133.3333333333335,22,distractor
129_129_pomper_saffran_2016_45,1,129,pomper_saffran_2016,45,orange,orange,blue,blue-orange,orange,distractor,87,16,0.8446601941747572,NA,1,1,NA,490,1,2900,2900,2900,20,distractor
129_129_pomper_saffran_2016_45,2,129,pomper_saffran_2016,45,red,red,green,green-red,red,distractor,67,4,0.9436619718309859,NA,2,1,NA,215,0,1116.6666666666667,1333.3333333333335,1333.3333333333335,20,distractor
129_129_pomper_saffran_2016_45,5,129,pomper_saffran_2016,45,red,red,green,green-red,red,distractor,97,7,0.9326923076923077,NA,1,1,NA,240,0,3233.3333333333335,3233.3333333333335,3233.3333333333335,20,distractor
129_129_pomper_saffran_2016_45,6,129,pomper_saffran_2016,45,black,black,yellow,black-yellow,black,distractor,95,8,0.9223300970873787,NA,1,1,NA,290,1,3166.666666666667,3166.666666666667,3166.666666666667,20,distractor
130_130_pomper_saffran_2016_44,10,130,pomper_saffran_2016,44,blue,blue,orange,blue-orange,blue,distractor,79,24,0.7669902912621359,NA,1,1,NA,690,1,2633.3333333333335,2633.3333333333335,2633.3333333333335,19,distractor
130_130_pomper_saffran_2016_44,11,130,pomper_saffran_2016,44,black,black,yellow,black-yellow,black,distractor,62,41,0.6019417475728155,NA,1,1,NA,1115,1,2066.666666666667,2066.666666666667,2066.666666666667,19,distractor
130_130_pomper_saffran_2016_44,15,130,pomper_saffran_2016,44,white,white,brown,brown-white,white,distractor,103,0,1,NA,1,1,NA,90,0,3433.3333333333335,3433.3333333333335,3433.3333333333335,19,distractor
131_131_pomper_saffran_2016_42,1,131,pomper_saffran_2016,42,blue,blue,orange,blue-orange,blue,distractor,86,16,0.8431372549019608,NA,1,1,NA,515,1,2866.666666666667,2866.666666666667,2866.666666666667,17,distractor
131_131_pomper_saffran_2016_42,4,131,pomper_saffran_2016,42,brown,brown,white,brown-white,brown,distractor,57,8,0.8769230769230769,NA,2,1,NA,290,1,950,1266.6666666666667,1266.6666666666667,17,distractor
131_131_pomper_saffran_2016_42,5,131,pomper_saffran_2016,42,green,green,red,green-red,green,distractor,86,3,0.9662921348314607,NA,2,1,NA,190,0,1433.3333333333335,2133.3333333333335,2133.3333333333335,17,distractor
131_131_pomper_saffran_2016_42,7,131,pomper_saffran_2016,42,blue,blue,orange,blue-orange,blue,distractor,101,3,0.9711538461538461,NA,1,1,NA,140,0,3366.666666666667,3366.666666666667,3366.666666666667,17,distractor
132_132_pomper_saffran_2016_41,9,132,pomper_saffran_2016,41,red,red,green,green-red,red,distractor,83,20,0.8058252427184466,NA,1,1,NA,590,1,2766.666666666667,2766.666666666667,2766.666666666667,16,distractor
132_132_pomper_saffran_2016_41,13,132,pomper_saffran_2016,41,black,black,yellow,black-yellow,black,distractor,97,4,0.9603960396039604,NA,1,1,NA,240,0,3233.3333333333335,3233.3333333333335,3233.3333333333335,16,distractor
132_132_pomper_saffran_2016_41,14,132,pomper_saffran_2016,41,red,red,green,green-red,red,distractor,48,48,0.5,NA,2,1,NA,115,2,800.0000000000001,566.6666666666667,1033.3333333333335,16,distractor
132_132_pomper_saffran_2016_41,15,132,pomper_saffran_2016,41,brown,brown,white,brown-white,brown,distractor,104,0,1,NA,1,1,NA,40,0,3466.666666666667,3466.666666666667,3466.666666666667,16,distractor
132_132_pomper_saffran_2016_41,16,132,pomper_saffran_2016,41,orange,orange,blue,blue-orange,orange,distractor,98,5,0.9514563106796117,NA,1,1,NA,215,0,3266.666666666667,3266.666666666667,3266.666666666667,16,distractor
133_133_pomper_saffran_2016_45,1,133,pomper_saffran_2016,45,green,green,red,green-red,green,distractor,77,19,0.8020833333333334,NA,2,1,NA,190,2,1283.3333333333335,1133.3333333333335,1433.3333333333335,20,distractor
133_133_pomper_saffran_2016_45,3,133,pomper_saffran_2016,45,black,black,yellow,black-yellow,black,distractor,62,37,0.6262626262626263,NA,2,1,NA,115,2,1033.3333333333335,966.6666666666667,1100,20,distractor
133_133_pomper_saffran_2016_45,7,133,pomper_saffran_2016,45,white,white,brown,brown-white,white,distractor,0,106,0,NA,NA,0,NA,NA,0,NA,NA,NA,20,distractor
134_134_pomper_saffran_2016_44,9,134,pomper_saffran_2016,44,orange,orange,blue,blue-orange,orange,distractor,85,19,0.8173076923076923,NA,1,1,NA,540,1,2833.3333333333335,2833.3333333333335,2833.3333333333335,19,distractor
134_134_pomper_saffran_2016_44,10,134,pomper_saffran_2016,44,red,red,green,green-red,red,distractor,65,30,0.6842105263157895,NA,1,1,NA,590,2,2166.666666666667,2166.666666666667,2166.666666666667,19,distractor
134_134_pomper_saffran_2016_44,14,134,pomper_saffran_2016,44,black,black,yellow,black-yellow,black,distractor,89,15,0.8557692307692307,NA,1,1,NA,440,1,2966.666666666667,2966.666666666667,2966.666666666667,19,distractor
134_134_pomper_saffran_2016_44,15,134,pomper_saffran_2016,44,orange,orange,blue,blue-orange,orange,distractor,79,24,0.7669902912621359,NA,1,1,NA,690,1,2633.3333333333335,2633.3333333333335,2633.3333333333335,19,distractor
135_135_pomper_saffran_2016_46,3,135,pomper_saffran_2016,46,yellow,yellow,black,black-yellow,yellow,distractor,93,11,0.8942307692307693,0.6603773584905661,1,1,NA,340,1,3100,3100,3100,21,distractor
135_135_pomper_saffran_2016_46,5,135,pomper_saffran_2016,46,black,black,yellow,black-yellow,black,distractor,75,23,0.7653061224489796,0.6037735849056604,2,1,NA,390,3,1250,1266.6666666666667,1266.6666666666667,21,distractor
136_136_pomper_saffran_2016_42,4,136,pomper_saffran_2016,42,white,white,brown,brown-white,white,distractor,105,0,1,0.6415094339622642,1,1,NA,40,0,3500.0000000000005,3500.0000000000005,3500.0000000000005,17,distractor
136_136_pomper_saffran_2016_42,6,136,pomper_saffran_2016,42,red,red,green,green-red,red,distractor,97,5,0.9509803921568627,NA,1,1,NA,240,0,3233.3333333333335,3233.3333333333335,3233.3333333333335,17,distractor
136_136_pomper_saffran_2016_42,7,136,pomper_saffran_2016,42,brown,brown,white,brown-white,brown,distractor,64,37,0.6336633663366337,0.6037735849056604,1,1,NA,490,2,2133.3333333333335,2133.3333333333335,2133.3333333333335,17,distractor
136_136_pomper_saffran_2016_42,8,136,pomper_saffran_2016,42,orange,orange,blue,blue-orange,orange,distractor,43,50,0.46236559139784944,NA,2,1,NA,240,2,716.6666666666667,933.3333333333334,933.3333333333334,17,distractor
137_137_pomper_saffran_2016_45,10,137,pomper_saffran_2016,45,green,green,red,green-red,green,distractor,55,41,0.5729166666666666,NA,1,1,NA,1115,1,1833.3333333333335,1833.3333333333335,1833.3333333333335,20,distractor
137_137_pomper_saffran_2016_45,13,137,pomper_saffran_2016,45,green,green,red,green-red,green,distractor,87,15,0.8529411764705882,NA,1,1,NA,490,1,2900,2900,2900,20,distractor
138_138_pomper_saffran_2016_43,1,138,pomper_saffran_2016,43,white,white,brown,brown-white,white,distractor,23,79,0.22549019607843138,-0.05660377358490565,1,0,NA,NA,1,766.6666666666667,766.6666666666667,766.6666666666667,18,distractor
138_138_pomper_saffran_2016_43,2,138,pomper_saffran_2016,43,black,black,yellow,black-yellow,black,distractor,80,20,0.8,NA,1,1,NA,615,1,2666.666666666667,2666.666666666667,2666.666666666667,18,distractor
138_138_pomper_saffran_2016_43,5,138,pomper_saffran_2016,43,brown,brown,white,brown-white,brown,distractor,73,29,0.7156862745098039,-0.05660377358490565,1,1,NA,840,1,2433.3333333333335,2433.3333333333335,2433.3333333333335,18,distractor
138_138_pomper_saffran_2016_43,6,138,pomper_saffran_2016,43,blue,blue,orange,blue-orange,blue,distractor,30,65,0.3157894736842105,NA,1,1,NA,140,1,800,800,800,18,distractor
138_138_pomper_saffran_2016_43,8,138,pomper_saffran_2016,43,green,green,red,green-red,green,distractor,98,4,0.9607843137254902,NA,1,1,NA,215,0,3266.666666666667,3266.666666666667,3266.666666666667,18,distractor
139_139_pomper_saffran_2016_45,11,139,pomper_saffran_2016,45,red,red,green,green-red,red,distractor,71,32,0.6893203883495146,NA,1,1,NA,890,1,2366.666666666667,2366.666666666667,2366.666666666667,20,distractor
139_139_pomper_saffran_2016_45,13,139,pomper_saffran_2016,45,white,white,brown,brown-white,white,distractor,79,25,0.7596153846153846,NA,1,1,NA,690,1,2633.3333333333335,2633.3333333333335,2633.3333333333335,20,distractor
139_139_pomper_saffran_2016_45,14,139,pomper_saffran_2016,45,orange,orange,blue,blue-orange,orange,distractor,88,0,1,NA,2,1,NA,15,0,1466.6666666666667,2300,2300,20,distractor
140_140_pomper_saffran_2016_46,1,140,pomper_saffran_2016,46,brown,brown,white,brown-white,brown,distractor,17,62,0.21518987341772153,0.1509433962264151,1,1,NA,215,1,566.6666666666667,566.6666666666667,566.6666666666667,21,distractor
140_140_pomper_saffran_2016_46,2,140,pomper_saffran_2016,46,yellow,yellow,black,black-yellow,yellow,distractor,93,11,0.8942307692307693,NA,1,1,NA,340,1,3100,3100,3100,21,distractor
140_140_pomper_saffran_2016_46,3,140,pomper_saffran_2016,46,green,green,red,green-red,green,distractor,97,8,0.9238095238095239,NA,1,1,NA,240,1,3233.3333333333335,3233.3333333333335,3233.3333333333335,21,distractor
140_140_pomper_saffran_2016_46,4,140,pomper_saffran_2016,46,orange,orange,blue,blue-orange,orange,distractor,98,7,0.9333333333333333,NA,1,1,NA,215,0,3266.666666666667,3266.666666666667,3266.666666666667,21,distractor
140_140_pomper_saffran_2016_46,5,140,pomper_saffran_2016,46,white,white,brown,brown-white,white,distractor,102,1,0.9902912621359223,0.37735849056603776,1,1,NA,115,0,3400.0000000000005,3400.0000000000005,3400.0000000000005,21,distractor
140_140_pomper_saffran_2016_46,6,140,pomper_saffran_2016,46,orange,orange,blue,blue-orange,orange,distractor,77,23,0.77,NA,2,1,NA,215,2,1283.3333333333335,1833.3333333333335,1833.3333333333335,21,distractor
140_140_pomper_saffran_2016_46,7,140,pomper_saffran_2016,46,yellow,yellow,black,black-yellow,yellow,distractor,102,1,0.9902912621359223,NA,1,1,NA,115,0,3400.0000000000005,3400.0000000000005,3400.0000000000005,21,distractor
141_141_pomper_saffran_2016_47,9,141,pomper_saffran_2016,47,blue,blue,orange,blue-orange,blue,distractor,69,35,0.6634615384615384,NA,1,1,NA,940,1,2300,2300,2300,22,distractor
141_141_pomper_saffran_2016_47,12,141,pomper_saffran_2016,47,brown,brown,white,brown-white,brown,distractor,83,20,0.8058252427184466,0.7169811320754718,1,1,NA,590,1,2766.666666666667,2766.666666666667,2766.666666666667,22,distractor
141_141_pomper_saffran_2016_47,14,141,pomper_saffran_2016,47,yellow,yellow,black,black-yellow,yellow,distractor,87,16,0.8446601941747572,NA,1,1,NA,490,1,2900,2900,2900,22,distractor
141_141_pomper_saffran_2016_47,15,141,pomper_saffran_2016,47,blue,blue,orange,blue-orange,blue,distractor,42,58,0.42,NA,2,1,NA,40,3,700.0000000000001,366.6666666666667,1033.3333333333335,22,distractor
141_141_pomper_saffran_2016_47,16,141,pomper_saffran_2016,47,white,white,brown,brown-white,white,distractor,97,7,0.9326923076923077,0.7264150943396226,1,1,NA,240,0,3233.3333333333335,3233.3333333333335,3233.3333333333335,22,distractor
142_142_pomper_saffran_2016_46,1,142,pomper_saffran_2016,46,white,white,brown,brown-white,white,distractor,97,3,0.97,0.839622641509434,1,1,NA,190,0,3233.3333333333335,3233.3333333333335,3233.3333333333335,21,distractor
142_142_pomper_saffran_2016_46,2,142,pomper_saffran_2016,46,black,black,yellow,black-yellow,black,distractor,85,19,0.8173076923076923,NA,1,1,NA,540,1,2833.3333333333335,2833.3333333333335,2833.3333333333335,21,distractor
142_142_pomper_saffran_2016_46,4,142,pomper_saffran_2016,46,blue,blue,orange,blue-orange,blue,distractor,106,0,1,NA,1,1,NA,15,0,3533.3333333333335,3533.3333333333335,3533.3333333333335,21,distractor
142_142_pomper_saffran_2016_46,5,142,pomper_saffran_2016,46,brown,brown,white,brown-white,brown,distractor,95,8,0.9223300970873787,0.8679245283018868,1,1,NA,290,1,3166.666666666667,3166.666666666667,3166.666666666667,21,distractor
142_142_pomper_saffran_2016_46,6,142,pomper_saffran_2016,46,blue,blue,orange,blue-orange,blue,distractor,106,0,1,NA,1,1,NA,15,0,3533.3333333333335,3533.3333333333335,3533.3333333333335,21,distractor
142_142_pomper_saffran_2016_46,7,142,pomper_saffran_2016,46,black,black,yellow,black-yellow,black,distractor,99,4,0.9611650485436893,NA,1,1,NA,190,0,3300.0000000000005,3300.0000000000005,3300.0000000000005,21,distractor
143_143_pomper_saffran_2016_45,11,143,pomper_saffran_2016,45,red,red,green,green-red,red,distractor,93,12,0.8857142857142857,NA,1,1,NA,340,1,3100,3100,3100,20,distractor
144_144_pomper_saffran_2016_46,3,144,pomper_saffran_2016,46,red,red,green,green-red,red,distractor,90,12,0.8823529411764706,0.7641509433962265,1,1,NA,415,1,3000,3000,3000,21,distractor
144_144_pomper_saffran_2016_46,4,144,pomper_saffran_2016,46,orange,orange,blue,blue-orange,orange,distractor,101,3,0.9711538461538461,NA,1,1,NA,140,0,3366.666666666667,3366.666666666667,3366.666666666667,21,distractor
144_144_pomper_saffran_2016_46,5,144,pomper_saffran_2016,46,white,white,brown,brown-white,white,distractor,99,3,0.9705882352941176,NA,1,1,NA,190,0,3300.0000000000005,3300.0000000000005,3300.0000000000005,21,distractor
144_144_pomper_saffran_2016_46,6,144,pomper_saffran_2016,46,orange,orange,blue,blue-orange,orange,distractor,91,11,0.8921568627450981,NA,1,1,NA,390,1,3033.3333333333335,3033.3333333333335,3033.3333333333335,21,distractor
144_144_pomper_saffran_2016_46,7,144,pomper_saffran_2016,46,green,green,red,green-red,green,distractor,94,9,0.912621359223301,0.7735849056603774,1,1,NA,315,1,3133.3333333333335,3133.3333333333335,3133.3333333333335,21,distractor
145_145_pomper_saffran_2016_47,12,145,pomper_saffran_2016,47,blue,blue,orange,blue-orange,blue,distractor,66,37,0.6407766990291263,NA,1,1,NA,1015,1,2200,2200,2200,22,distractor
145_145_pomper_saffran_2016_47,14,145,pomper_saffran_2016,47,blue,blue,orange,blue-orange,blue,distractor,97,7,0.9326923076923077,NA,1,1,NA,240,0,3233.3333333333335,3233.3333333333335,3233.3333333333335,22,distractor
145_145_pomper_saffran_2016_47,16,145,pomper_saffran_2016,47,black,black,yellow,black-yellow,black,distractor,58,35,0.6236559139784946,NA,2,1,NA,115,2,966.6666666666667,1333.3333333333335,1333.3333333333335,22,distractor
146_146_pomper_saffran_2016_43,9,146,pomper_saffran_2016,43,black,black,yellow,black-yellow,black,distractor,89,16,0.8476190476190476,NA,1,1,NA,440,1,2966.666666666667,2966.666666666667,2966.666666666667,18,distractor
146_146_pomper_saffran_2016_43,10,146,pomper_saffran_2016,43,white,white,brown,brown-white,white,distractor,81,21,0.7941176470588235,NA,1,1,NA,115,1,2700,2700,2700,18,distractor
146_146_pomper_saffran_2016_43,14,146,pomper_saffran_2016,43,blue,blue,orange,blue-orange,blue,distractor,68,33,0.6732673267326733,NA,1,1,NA,340,2,2266.666666666667,2266.666666666667,2266.666666666667,18,distractor
146_146_pomper_saffran_2016_43,16,146,pomper_saffran_2016,43,black,black,yellow,black-yellow,black,distractor,15,49,0.234375,NA,1,0,NA,NA,1,500.00000000000006,500.00000000000006,500.00000000000006,18,distractor
147_147_pomper_saffran_2016_46,9,147,pomper_saffran_2016,46,white,white,brown,brown-white,white,distractor,89,16,0.8476190476190476,0.7358490566037736,1,1,NA,440,1,2966.666666666667,2966.666666666667,2966.666666666667,21,distractor
147_147_pomper_saffran_2016_46,10,147,pomper_saffran_2016,46,black,black,yellow,black-yellow,black,distractor,38,63,0.37623762376237624,NA,1,1,NA,490,2,1266.6666666666667,1266.6666666666667,1266.6666666666667,21,distractor
147_147_pomper_saffran_2016_46,11,147,pomper_saffran_2016,46,red,red,green,green-red,red,distractor,97,7,0.9326923076923077,0.6981132075471699,1,1,NA,240,0,3233.3333333333335,3233.3333333333335,3233.3333333333335,21,distractor
147_147_pomper_saffran_2016_46,12,147,pomper_saffran_2016,46,blue,blue,orange,blue-orange,blue,distractor,78,21,0.7878787878787878,NA,1,1,NA,190,1,2600,2600,2600,21,distractor
147_147_pomper_saffran_2016_46,13,147,pomper_saffran_2016,46,brown,brown,white,brown-white,brown,distractor,93,11,0.8942307692307693,0.7264150943396227,1,1,NA,340,1,3100,3100,3100,21,distractor
147_147_pomper_saffran_2016_46,15,147,pomper_saffran_2016,46,black,black,yellow,black-yellow,black,distractor,46,19,0.7076923076923077,NA,1,1,NA,290,2,1533.3333333333335,1533.3333333333335,1533.3333333333335,21,distractor
147_147_pomper_saffran_2016_46,16,147,pomper_saffran_2016,46,green,green,red,green-red,green,distractor,77,23,0.77,0.660377358490566,2,1,NA,140,2,1283.3333333333335,2233.3333333333335,2233.3333333333335,21,distractor
148_148_pomper_saffran_2016_44,2,148,pomper_saffran_2016,44,brown,brown,white,brown-white,brown,distractor,75,26,0.7425742574257426,0.21698113207547165,2,1,NA,140,2,1250,1533.3333333333335,1533.3333333333335,19,distractor
148_148_pomper_saffran_2016_44,3,148,pomper_saffran_2016,44,red,red,green,green-red,red,distractor,50,49,0.5050505050505051,0.3679245283018868,1,1,NA,290,2,1666.6666666666667,1666.6666666666667,1666.6666666666667,19,distractor
148_148_pomper_saffran_2016_44,5,148,pomper_saffran_2016,44,white,white,brown,brown-white,white,distractor,51,52,0.49514563106796117,0.2358490566037736,1,1,NA,340,2,1700.0000000000002,1700.0000000000002,1700.0000000000002,19,distractor
148_148_pomper_saffran_2016_44,7,148,pomper_saffran_2016,44,green,green,red,green-red,green,distractor,94,11,0.8952380952380953,0.42452830188679247,1,1,NA,315,1,3133.3333333333335,3133.3333333333335,3133.3333333333335,19,distractor
149_149_pomper_saffran_2016_44,9,149,pomper_saffran_2016,44,brown,brown,white,brown-white,brown,distractor,67,27,0.7127659574468085,NA,2,1,NA,90,3,1116.6666666666667,600,1633.3333333333335,19,distractor
149_149_pomper_saffran_2016_44,12,149,pomper_saffran_2016,44,orange,orange,blue,blue-orange,orange,distractor,62,32,0.6595744680851063,NA,2,1,NA,390,4,1033.3333333333335,733.3333333333334,1333.3333333333335,19,distractor
149_149_pomper_saffran_2016_44,14,149,pomper_saffran_2016,44,orange,orange,blue,blue-orange,orange,distractor,102,1,0.9902912621359223,NA,1,1,NA,115,0,3400.0000000000005,3400.0000000000005,3400.0000000000005,19,distractor
149_149_pomper_saffran_2016_44,15,149,pomper_saffran_2016,44,yellow,yellow,black,black-yellow,yellow,distractor,95,8,0.9223300970873787,NA,1,1,NA,290,1,3166.666666666667,3166.666666666667,3166.666666666667,19,distractor
150_150_pomper_saffran_2016_43,9,150,pomper_saffran_2016,43,white,white,brown,brown-white,white,distractor,90,12,0.8823529411764706,0.7452830188679246,2,1,NA,15,2,1500,1466.6666666666667,1533.3333333333335,18,distractor
150_150_pomper_saffran_2016_43,10,150,pomper_saffran_2016,43,black,black,yellow,black-yellow,black,distractor,77,19,0.8020833333333334,NA,2,1,NA,190,2,1283.3333333333335,866.6666666666667,1700.0000000000002,18,distractor
150_150_pomper_saffran_2016_43,12,150,pomper_saffran_2016,43,blue,blue,orange,blue-orange,blue,distractor,105,0,1,NA,1,1,NA,40,0,3500.0000000000005,3500.0000000000005,3500.0000000000005,18,distractor
150_150_pomper_saffran_2016_43,13,150,pomper_saffran_2016,43,brown,brown,white,brown-white,brown,distractor,93,11,0.8942307692307693,0.7641509433962265,1,1,NA,340,1,3100,3100,3100,18,distractor
151_151_pomper_saffran_2016_45,2,151,pomper_saffran_2016,45,yellow,yellow,black,black-yellow,yellow,distractor,98,4,0.9607843137254902,NA,1,1,NA,215,0,3266.666666666667,3266.666666666667,3266.666666666667,20,distractor
151_151_pomper_saffran_2016_45,5,151,pomper_saffran_2016,45,white,white,brown,brown-white,white,distractor,67,29,0.6979166666666666,NA,2,1,NA,540,3,1116.6666666666667,1200,1200,20,distractor
151_151_pomper_saffran_2016_45,7,151,pomper_saffran_2016,45,yellow,yellow,black,black-yellow,yellow,distractor,79,24,0.7669902912621359,NA,1,1,NA,690,1,2633.3333333333335,2633.3333333333335,2633.3333333333335,20,distractor
152_152_pomper_saffran_2016_46,1,152,pomper_saffran_2016,46,black,black,yellow,black-yellow,black,distractor,61,25,0.7093023255813954,NA,1,1,NA,515,1,2033.3333333333335,2033.3333333333335,2033.3333333333335,21,distractor
152_152_pomper_saffran_2016_46,2,152,pomper_saffran_2016,46,white,white,brown,brown-white,white,distractor,89,16,0.8476190476190476,0.7264150943396227,1,1,NA,440,1,2966.666666666667,2966.666666666667,2966.666666666667,21,distractor
152_152_pomper_saffran_2016_46,5,152,pomper_saffran_2016,46,brown,brown,white,brown-white,brown,distractor,91,12,0.883495145631068,0.7075471698113208,1,1,NA,390,1,3033.3333333333335,3033.3333333333335,3033.3333333333335,21,distractor
152_152_pomper_saffran_2016_46,6,152,pomper_saffran_2016,46,blue,blue,orange,blue-orange,blue,distractor,61,34,0.6421052631578947,NA,2,1,NA,515,3,1016.6666666666667,966.6666666666667,1066.6666666666667,21,distractor
153_153_pomper_saffran_2016_45,1,153,pomper_saffran_2016,45,black,black,yellow,black-yellow,black,distractor,29,55,0.34523809523809523,NA,2,1,NA,390,3,483.33333333333337,300,666.6666666666667,20,distractor
153_153_pomper_saffran_2016_45,3,153,pomper_saffran_2016,45,green,green,red,green-red,green,distractor,79,7,0.9186046511627907,0.6037735849056604,1,1,NA,240,0,2633.3333333333335,2633.3333333333335,2633.3333333333335,20,distractor
153_153_pomper_saffran_2016_45,7,153,pomper_saffran_2016,45,red,red,green,green-red,red,distractor,89,15,0.8557692307692307,0.7735849056603774,1,1,NA,440,1,2966.666666666667,2966.666666666667,2966.666666666667,20,distractor
154_154_pomper_saffran_2016_41,9,154,pomper_saffran_2016,41,brown,brown,white,brown-white,brown,distractor,49,50,0.494949494949495,0.3113207547169812,2,1,NA,440,3,816.6666666666667,866.6666666666667,866.6666666666667,16,distractor
154_154_pomper_saffran_2016_41,12,154,pomper_saffran_2016,41,orange,orange,blue,blue-orange,orange,distractor,81,19,0.81,NA,2,1,NA,140,2,1350.0000000000002,633.3333333333334,2066.666666666667,16,distractor
154_154_pomper_saffran_2016_41,13,154,pomper_saffran_2016,41,white,white,brown,brown-white,white,distractor,89,16,0.8476190476190476,0.3679245283018868,1,1,NA,440,1,2966.666666666667,2966.666666666667,2966.666666666667,16,distractor
155_155_pomper_saffran_2016_44,3,155,pomper_saffran_2016,44,yellow,yellow,black,black-yellow,yellow,distractor,95,7,0.9313725490196079,-0.10377358490566035,1,1,NA,290,0,3166.666666666667,3166.666666666667,3166.666666666667,19,distractor
155_155_pomper_saffran_2016_44,6,155,pomper_saffran_2016,44,black,black,yellow,black-yellow,black,distractor,0,106,0,-0.0660377358490566,NA,0,NA,NA,0,NA,NA,NA,19,distractor
155_155_pomper_saffran_2016_44,7,155,pomper_saffran_2016,44,orange,orange,blue,blue-orange,orange,distractor,71,7,0.9102564102564102,NA,2,1,NA,240,0,1183.3333333333335,800,1566.6666666666667,19,distractor
155_155_pomper_saffran_2016_44,8,155,pomper_saffran_2016,44,brown,brown,white,brown-white,brown,distractor,103,1,0.9903846153846154,NA,1,1,NA,90,0,3433.3333333333335,3433.3333333333335,3433.3333333333335,19,distractor
156_156_pomper_saffran_2016_46,9,156,pomper_saffran_2016,46,green,green,red,green-red,green,distractor,7,96,0.06796116504854369,NA,NA,0,NA,NA,0,NA,233.33333333333334,NA,21,distractor
156_156_pomper_saffran_2016_46,10,156,pomper_saffran_2016,46,blue,blue,orange,blue-orange,blue,distractor,41,58,0.41414141414141414,NA,2,1,NA,340,4,683.3333333333334,933.3333333333334,933.3333333333334,21,distractor
156_156_pomper_saffran_2016_46,12,156,pomper_saffran_2016,46,brown,brown,white,brown-white,brown,distractor,79,0,1,NA,1,1,NA,240,0,2633.3333333333335,2633.3333333333335,2633.3333333333335,21,distractor
156_156_pomper_saffran_2016_46,14,156,pomper_saffran_2016,46,green,green,red,green-red,green,distractor,91,12,0.883495145631068,NA,1,1,NA,390,1,3033.3333333333335,3033.3333333333335,3033.3333333333335,21,distractor
157_157_pomper_saffran_2016_46,1,157,pomper_saffran_2016,46,blue,blue,orange,blue-orange,blue,distractor,74,24,0.7551020408163265,NA,2,1,NA,90,2,1233.3333333333335,2000.0000000000002,2000.0000000000002,21,distractor
157_157_pomper_saffran_2016_46,4,157,pomper_saffran_2016,46,brown,brown,white,brown-white,brown,distractor,102,1,0.9902912621359223,NA,1,1,NA,115,0,3400.0000000000005,3400.0000000000005,3400.0000000000005,21,distractor
157_157_pomper_saffran_2016_46,5,157,pomper_saffran_2016,46,green,green,red,green-red,green,distractor,106,0,1,NA,1,1,NA,15,0,3533.3333333333335,3533.3333333333335,3533.3333333333335,21,distractor
157_157_pomper_saffran_2016_46,6,157,pomper_saffran_2016,46,yellow,yellow,black,black-yellow,yellow,distractor,65,27,0.7065217391304348,NA,1,1,NA,1040,1,2166.666666666667,2166.666666666667,2166.666666666667,21,distractor
158_158_pomper_saffran_2016_47,2,158,pomper_saffran_2016,47,green,green,red,green-red,green,distractor,56,24,0.7,NA,2,1,NA,690,1,933.3333333333335,866.6666666666667,1000.0000000000001,22,distractor
158_158_pomper_saffran_2016_47,4,158,pomper_saffran_2016,47,brown,brown,white,brown-white,brown,distractor,95,8,0.9223300970873787,0.5188679245283019,1,1,NA,290,1,3166.666666666667,3166.666666666667,3166.666666666667,22,distractor
158_158_pomper_saffran_2016_47,5,158,pomper_saffran_2016,47,green,green,red,green-red,green,distractor,37,67,0.3557692307692308,NA,1,0,NA,NA,1,1233.3333333333335,1233.3333333333335,1233.3333333333335,22,distractor
158_158_pomper_saffran_2016_47,8,158,pomper_saffran_2016,47,white,white,brown,brown-white,white,distractor,59,40,0.5959595959595959,0.4811320754716981,2,1,NA,540,3,983.3333333333334,800,1166.6666666666667,22,distractor
159_159_pomper_saffran_2016_47,9,159,pomper_saffran_2016,47,red,red,green,green-red,red,distractor,94,9,0.912621359223301,NA,1,1,NA,315,1,3133.3333333333335,3133.3333333333335,3133.3333333333335,22,distractor
159_159_pomper_saffran_2016_47,14,159,pomper_saffran_2016,47,red,red,green,green-red,red,distractor,0,76,0,NA,NA,0,NA,NA,0,NA,NA,NA,22,distractor
159_159_pomper_saffran_2016_47,15,159,pomper_saffran_2016,47,brown,brown,white,brown-white,brown,distractor,87,16,0.8446601941747572,NA,1,1,NA,490,1,2900,2900,2900,22,distractor
159_159_pomper_saffran_2016_47,16,159,pomper_saffran_2016,47,orange,orange,blue,blue-orange,orange,distractor,0,106,0,NA,NA,0,NA,NA,0,NA,NA,NA,22,distractor
160_160_pomper_saffran_2016_43,3,160,pomper_saffran_2016,43,black,black,yellow,black-yellow,black,distractor,28,72,0.28,NA,1,1,NA,515,2,933.3333333333334,933.3333333333334,933.3333333333334,18,distractor
160_160_pomper_saffran_2016_43,4,160,pomper_saffran_2016,43,brown,brown,white,brown-white,brown,distractor,66,29,0.6947368421052632,NA,3,1,NA,90,4,733.3333333333334,400,1333.3333333333335,18,distractor
160_160_pomper_saffran_2016_43,6,160,pomper_saffran_2016,43,green,green,red,green-red,green,distractor,71,24,0.7473684210526316,NA,1,1,NA,340,2,2366.666666666667,2366.666666666667,2366.666666666667,18,distractor
160_160_pomper_saffran_2016_43,8,160,pomper_saffran_2016,43,blue,blue,orange,blue-orange,blue,distractor,95,5,0.95,NA,1,1,NA,140,0,3166.666666666667,3166.666666666667,3166.666666666667,18,distractor
161_161_pomper_saffran_2016_44,3,161,pomper_saffran_2016,44,yellow,yellow,black,black-yellow,yellow,distractor,89,12,0.8811881188118812,0.42452830188679247,1,1,NA,415,1,2966.666666666667,2966.666666666667,2966.666666666667,19,distractor
161_161_pomper_saffran_2016_44,4,161,pomper_saffran_2016,44,white,white,brown,brown-white,white,distractor,80,17,0.8247422680412371,0.3207547169811321,2,1,NA,115,2,1333.3333333333335,2166.666666666667,2166.666666666667,19,distractor
161_161_pomper_saffran_2016_44,5,161,pomper_saffran_2016,44,red,red,green,green-red,red,distractor,98,5,0.9514563106796117,NA,1,1,NA,215,0,3266.666666666667,3266.666666666667,3266.666666666667,19,distractor
161_161_pomper_saffran_2016_44,6,161,pomper_saffran_2016,44,black,black,yellow,black-yellow,black,distractor,55,44,0.5555555555555556,0.4056603773584906,1,1,NA,440,2,1833.3333333333335,1833.3333333333335,1833.3333333333335,19,distractor
161_161_pomper_saffran_2016_44,8,161,pomper_saffran_2016,44,brown,brown,white,brown-white,brown,distractor,53,46,0.5353535353535354,0.339622641509434,1,1,NA,490,2,1600,1600,1600,19,distractor
162_162_pomper_saffran_2016_45,13,162,pomper_saffran_2016,45,yellow,yellow,black,black-yellow,yellow,distractor,42,34,0.5526315789473685,NA,1,0,NA,NA,1,1400,1400,1400,20,distractor
162_162_pomper_saffran_2016_45,15,162,pomper_saffran_2016,45,white,white,brown,brown-white,white,distractor,57,47,0.5480769230769231,NA,1,1,NA,1240,1,1900.0000000000002,1900.0000000000002,1900.0000000000002,20,distractor
163_163_pomper_saffran_2016_46,3,163,pomper_saffran_2016,46,black,black,yellow,black-yellow,black,distractor,74,29,0.7184466019417476,NA,1,1,NA,815,1,2466.666666666667,2466.666666666667,2466.666666666667,21,distractor
163_163_pomper_saffran_2016_46,5,163,pomper_saffran_2016,46,green,green,red,green-red,green,distractor,103,0,1,NA,1,1,NA,90,0,3433.3333333333335,3433.3333333333335,3433.3333333333335,21,distractor
164_164_pomper_saffran_2016_45,9,164,pomper_saffran_2016,45,red,red,green,green-red,red,distractor,106,0,1,NA,1,1,NA,15,0,3533.3333333333335,3533.3333333333335,3533.3333333333335,20,distractor
164_164_pomper_saffran_2016_45,10,164,pomper_saffran_2016,45,orange,orange,blue,blue-orange,orange,distractor,76,20,0.7916666666666666,NA,2,1,NA,340,1,1266.6666666666667,1666.6666666666667,1666.6666666666667,20,distractor
164_164_pomper_saffran_2016_45,11,164,pomper_saffran_2016,45,yellow,yellow,black,black-yellow,yellow,distractor,27,77,0.25961538461538464,-0.22641509433962265,1,0,NA,NA,1,900.0000000000001,900.0000000000001,900.0000000000001,20,distractor
164_164_pomper_saffran_2016_45,12,164,pomper_saffran_2016,45,white,white,brown,brown-white,white,distractor,63,36,0.6363636363636364,NA,2,1,NA,690,3,1050,1000.0000000000001,1100,20,distractor
164_164_pomper_saffran_2016_45,13,164,pomper_saffran_2016,45,black,black,yellow,black-yellow,black,distractor,50,51,0.49504950495049505,-0.2547169811320754,2,1,NA,715,3,833.3333333333334,1166.6666666666667,1166.6666666666667,20,distractor
164_164_pomper_saffran_2016_45,16,164,pomper_saffran_2016,45,orange,orange,blue,blue-orange,orange,distractor,21,82,0.20388349514563106,NA,1,0,NA,NA,2,700,700,700,20,distractor
165_165_pomper_saffran_2016_46,7,165,pomper_saffran_2016,46,red,red,green,green-red,red,distractor,61,7,0.8970588235294118,NA,1,1,NA,215,0,2033.3333333333335,2033.3333333333335,2033.3333333333335,21,distractor
166_166_pomper_saffran_2016_47,10,166,pomper_saffran_2016,47,red,red,green,green-red,red,distractor,101,3,0.9711538461538461,NA,1,1,NA,140,0,3366.666666666667,3366.666666666667,3366.666666666667,22,distractor
166_166_pomper_saffran_2016_47,11,166,pomper_saffran_2016,47,yellow,yellow,black,black-yellow,yellow,distractor,103,0,1,0.7075471698113207,1,1,NA,90,0,3433.3333333333335,3433.3333333333335,3433.3333333333335,22,distractor
166_166_pomper_saffran_2016_47,13,166,pomper_saffran_2016,47,red,red,green,green-red,red,distractor,103,1,0.9903846153846154,NA,1,1,NA,90,0,3433.3333333333335,3433.3333333333335,3433.3333333333335,22,distractor
166_166_pomper_saffran_2016_47,14,166,pomper_saffran_2016,47,black,black,yellow,black-yellow,black,distractor,75,28,0.7281553398058253,0.7075471698113207,1,1,NA,790,1,2500,2500,2500,22,distractor
166_166_pomper_saffran_2016_47,16,166,pomper_saffran_2016,47,brown,brown,white,brown-white,brown,distractor,77,28,0.7333333333333333,NA,1,1,NA,740,1,2566.666666666667,2566.666666666667,2566.666666666667,22,distractor
167_167_pomper_saffran_2016_46,1,167,pomper_saffran_2016,46,green,green,red,green-red,green,distractor,91,12,0.883495145631068,NA,1,1,NA,390,1,3033.3333333333335,3033.3333333333335,3033.3333333333335,21,distractor
167_167_pomper_saffran_2016_46,4,167,pomper_saffran_2016,46,brown,brown,white,brown-white,brown,distractor,91,12,0.883495145631068,NA,1,1,NA,390,1,3033.3333333333335,3033.3333333333335,3033.3333333333335,21,distractor
167_167_pomper_saffran_2016_46,5,167,pomper_saffran_2016,46,yellow,yellow,black,black-yellow,yellow,distractor,102,3,0.9714285714285714,NA,1,1,NA,115,0,3400.0000000000005,3400.0000000000005,3400.0000000000005,21,distractor
167_167_pomper_saffran_2016_46,8,167,pomper_saffran_2016,46,blue,blue,orange,blue-orange,blue,distractor,106,0,1,NA,1,1,NA,15,0,3533.3333333333335,3533.3333333333335,3533.3333333333335,21,distractor
439_769_swingley_aslin_2002_15,2,439,swingley_aslin_2002,15,opple,apple,ball,apple-ball,opple,distractor,55,49,0.5288461538461539,-0.11792452830188682,1,1,NA,1290,1,1833.3333333333335,1833.3333333333335,1833.3333333333335,-10,distractor
439_769_swingley_aslin_2002_15,3,439,swingley_aslin_2002,15,pity,kitty,car,car-kitty,pity,distractor,0,106,0,NA,NA,0,NA,NA,0,NA,NA,NA,-10,distractor
439_769_swingley_aslin_2002_15,11,439,swingley_aslin_2002,15,gall,ball,apple,apple-ball,gall,distractor,26,76,0.2549019607843137,-0.12735849056603776,1,1,NA,440,2,866.6666666666667,866.6666666666667,866.6666666666667,-10,distractor
439_769_swingley_aslin_2002_15,17,439,swingley_aslin_2002,15,gall,ball,apple,apple-ball,gall,distractor,45,59,0.4326923076923077,-0.12735849056603776,2,1,NA,15,2,750,1200,1200,-10,distractor
439_769_swingley_aslin_2002_15,20,439,swingley_aslin_2002,15,tog,dog,baby,baby-dog,tog,distractor,94,11,0.8952380952380953,NA,1,1,NA,315,1,3133.3333333333335,3133.3333333333335,3133.3333333333335,-10,distractor
440_770_swingley_aslin_2002_15,1,440,swingley_aslin_2002,15,pity,kitty,car,car-kitty,pity,distractor,0,105,0,-0.1792452830188679,NA,0,NA,NA,0,NA,NA,NA,-10,distractor
440_770_swingley_aslin_2002_15,3,440,swingley_aslin_2002,15,cur,car,kitty,car-kitty,cur,distractor,84,15,0.8484848484848485,-0.25943396226415094,2,1,NA,440,1,1400,2333.3333333333335,2333.3333333333335,-10,distractor
440_770_swingley_aslin_2002_15,8,440,swingley_aslin_2002,15,vaby,baby,dog,baby-dog,vaby,distractor,43,55,0.4387755102040816,NA,1,0,NA,NA,1,1433.3333333333335,1433.3333333333335,1433.3333333333335,-10,distractor
440_770_swingley_aslin_2002_15,12,440,swingley_aslin_2002,15,opple,apple,ball,apple-ball,opple,distractor,18,70,0.20454545454545456,NA,1,1,NA,1190,2,600,600,600,-10,distractor
440_770_swingley_aslin_2002_15,14,440,swingley_aslin_2002,15,cur,car,kitty,car-kitty,cur,distractor,71,23,0.7553191489361702,-0.25943396226415094,2,1,NA,415,2,1183.3333333333335,1066.6666666666667,1300,-10,distractor
441_771_swingley_aslin_2002_15,3,441,swingley_aslin_2002,15,cur,car,kitty,car-kitty,cur,distractor,37,65,0.3627450980392157,NA,1,0,NA,NA,1,1233.3333333333335,1233.3333333333335,1233.3333333333335,-10,distractor
441_771_swingley_aslin_2002_15,6,441,swingley_aslin_2002,15,tog,dog,baby,baby-dog,tog,distractor,48,55,0.46601941747572817,-0.028301886792452824,1,1,NA,890,2,1600,1600,1600,-10,distractor
441_771_swingley_aslin_2002_15,8,441,swingley_aslin_2002,15,vaby,baby,dog,baby-dog,vaby,distractor,50,51,0.49504950495049505,-0.047169811320754707,1,1,NA,215,1,1566.6666666666667,1566.6666666666667,1566.6666666666667,-10,distractor
441_771_swingley_aslin_2002_15,9,441,swingley_aslin_2002,15,gall,ball,apple,apple-ball,gall,distractor,74,29,0.7184466019417476,0.38679245283018865,1,1,NA,815,1,2466.666666666667,2466.666666666667,2466.666666666667,-10,distractor
441_771_swingley_aslin_2002_15,12,441,swingley_aslin_2002,15,opple,apple,ball,apple-ball,opple,distractor,71,33,0.6826923076923077,0.3962264150943396,1,1,NA,890,1,2366.666666666667,2366.666666666667,2366.666666666667,-10,distractor
441_771_swingley_aslin_2002_15,14,441,swingley_aslin_2002,15,cur,car,kitty,car-kitty,cur,distractor,95,9,0.9134615384615384,NA,1,1,NA,290,1,3166.666666666667,3166.666666666667,3166.666666666667,-10,distractor
442_772_swingley_aslin_2002_15,6,442,swingley_aslin_2002,15,tog,dog,baby,baby-dog,tog,distractor,53,48,0.5247524752475248,NA,1,1,NA,1215,1,1766.6666666666667,1766.6666666666667,1766.6666666666667,-10,distractor
442_772_swingley_aslin_2002_15,9,442,swingley_aslin_2002,15,gall,ball,apple,apple-ball,gall,distractor,40,64,0.38461538461538464,NA,1,1,NA,1290,2,1333.3333333333335,1333.3333333333335,1333.3333333333335,-10,distractor
442_772_swingley_aslin_2002_15,16,442,swingley_aslin_2002,15,gall,ball,apple,apple-ball,gall,distractor,63,41,0.6057692307692307,NA,1,1,NA,1090,1,2100,2100,2100,-10,distractor
443_773_swingley_aslin_2002_16,49,443,swingley_aslin_2002,16,yitty,kitty,car,car-kitty,yitty,distractor,34,68,0.3333333333333333,-0.679245283018868,1,1,NA,790,2,1133.3333333333335,1133.3333333333335,1133.3333333333335,-9,distractor
443_773_swingley_aslin_2002_16,53,443,swingley_aslin_2002,16,shawl,ball,apple,apple-ball,shawl,distractor,34,71,0.3238095238095238,NA,1,0,NA,NA,1,1133.3333333333335,1133.3333333333335,1133.3333333333335,-9,distractor
443_773_swingley_aslin_2002_16,57,443,swingley_aslin_2002,16,mog,dog,baby,baby-dog,mog,distractor,69,36,0.6571428571428571,NA,1,1,NA,940,1,2300,2300,2300,-9,distractor
443_773_swingley_aslin_2002_16,58,443,swingley_aslin_2002,16,kier,car,kitty,car-kitty,kier,distractor,0,106,0,-0.6415094339622641,NA,0,NA,NA,0,NA,NA,NA,-9,distractor
444_774_swingley_aslin_2002_15,50,444,swingley_aslin_2002,15,mog,dog,baby,baby-dog,mog,distractor,2,103,0.01904761904761905,NA,NA,0,NA,NA,0,NA,NA,NA,-10,distractor
444_774_swingley_aslin_2002_15,51,444,swingley_aslin_2002,15,kier,car,kitty,car-kitty,kier,distractor,12,92,0.11538461538461539,NA,1,0,NA,NA,1,400,400,400,-10,distractor
444_774_swingley_aslin_2002_15,53,444,swingley_aslin_2002,15,shawl,ball,apple,apple-ball,shawl,distractor,24,81,0.22857142857142856,-0.33962264150943394,1,1,NA,1215,2,800,800,800,-10,distractor
444_774_swingley_aslin_2002_15,54,444,swingley_aslin_2002,15,opal,apple,ball,apple-ball,opal,distractor,38,60,0.3877551020408163,-0.40566037735849064,1,1,NA,940,2,1266.6666666666667,1266.6666666666667,1266.6666666666667,-10,distractor
445_775_swingley_aslin_2002_15,35,445,swingley_aslin_2002,15,kier,car,kitty,car-kitty,kier,distractor,0,106,0,NA,NA,0,NA,NA,0,NA,NA,NA,-10,distractor
445_775_swingley_aslin_2002_15,37,445,swingley_aslin_2002,15,raby,baby,dog,baby-dog,raby,distractor,37,66,0.3592233009708738,NA,1,1,NA,1090,2,1233.3333333333335,1233.3333333333335,1233.3333333333335,-10,distractor
445_775_swingley_aslin_2002_15,38,445,swingley_aslin_2002,15,shawl,ball,apple,apple-ball,shawl,distractor,0,99,0,-0.6415094339622641,NA,0,NA,NA,0,NA,NA,NA,-10,distractor
445_775_swingley_aslin_2002_15,39,445,swingley_aslin_2002,15,opal,apple,ball,apple-ball,opal,distractor,34,68,0.3333333333333333,-0.6132075471698113,1,1,NA,1190,2,1066.6666666666667,1066.6666666666667,1066.6666666666667,-10,distractor
445_775_swingley_aslin_2002_15,42,445,swingley_aslin_2002,15,kier,car,kitty,car-kitty,kier,distractor,0,106,0,NA,NA,0,NA,NA,0,NA,NA,NA,-10,distractor
446_776_swingley_aslin_2002_14,40,446,swingley_aslin_2002,14,shawl,ball,apple,apple-ball,shawl,distractor,0,106,0,NA,NA,0,NA,NA,0,NA,NA,NA,-11,distractor
446_776_swingley_aslin_2002_14,41,446,swingley_aslin_2002,14,raby,baby,dog,baby-dog,raby,distractor,35,69,0.33653846153846156,NA,1,1,NA,1340,2,1166.6666666666667,1166.6666666666667,1166.6666666666667,-11,distractor
447_777_swingley_aslin_2002_15,46,447,swingley_aslin_2002,15,shawl,ball,apple,apple-ball,shawl,distractor,78,27,0.7428571428571429,NA,1,1,NA,715,1,2600,2600,2600,-10,distractor
447_777_swingley_aslin_2002_15,51,447,swingley_aslin_2002,15,yitty,kitty,car,car-kitty,yitty,distractor,0,106,0,-0.9150943396226415,NA,0,NA,NA,0,NA,NA,NA,-10,distractor
447_777_swingley_aslin_2002_15,52,447,swingley_aslin_2002,15,mog,dog,baby,baby-dog,mog,distractor,63,41,0.6057692307692307,NA,1,1,NA,1090,1,2100,2100,2100,-10,distractor
447_777_swingley_aslin_2002_15,59,447,swingley_aslin_2002,15,mog,dog,baby,baby-dog,mog,distractor,25,78,0.24271844660194175,NA,1,0,NA,NA,2,833.3333333333334,833.3333333333334,833.3333333333334,-10,distractor
447_777_swingley_aslin_2002_15,63,447,swingley_aslin_2002,15,kier,car,kitty,car-kitty,kier,distractor,1,97,0.01020408163265306,-0.9905660377358491,NA,0,NA,NA,0,NA,NA,NA,-10,distractor
448_778_swingley_aslin_2002_15,28,448,swingley_aslin_2002,15,yitty,kitty,car,car-kitty,yitty,distractor,24,79,0.23300970873786409,-0.3443396226415094,2,1,NA,1140,3,400,466.6666666666667,466.6666666666667,-10,distractor
448_778_swingley_aslin_2002_15,71,448,swingley_aslin_2002,15,kier,car,kitty,car-kitty,kier,distractor,40,60,0.4,-0.3867924528301887,2,1,NA,190,3,666.6666666666667,833.3333333333334,833.3333333333334,-10,distractor
448_778_swingley_aslin_2002_15,74,448,swingley_aslin_2002,15,raby,baby,dog,baby-dog,raby,distractor,51,53,0.49038461538461536,NA,1,1,NA,1390,1,1700.0000000000002,1700.0000000000002,1700.0000000000002,-10,distractor
448_778_swingley_aslin_2002_15,79,448,swingley_aslin_2002,15,shawl,ball,apple,apple-ball,shawl,distractor,105,0,1,0.2735849056603774,1,1,NA,40,0,3500.0000000000005,3500.0000000000005,3500.0000000000005,-10,distractor
448_778_swingley_aslin_2002_15,81,448,swingley_aslin_2002,15,opal,apple,ball,apple-ball,opal,distractor,19,76,0.2,0.1792452830188679,1,1,NA,1315,2,633.3333333333334,633.3333333333334,633.3333333333334,-10,distractor
448_778_swingley_aslin_2002_15,83,448,swingley_aslin_2002,15,yitty,kitty,car,car-kitty,yitty,distractor,23,83,0.2169811320754717,-0.3443396226415094,1,0,NA,NA,1,766.6666666666667,766.6666666666667,766.6666666666667,-10,distractor
449_779_swingley_aslin_2002_14,55,449,swingley_aslin_2002,14,kier,car,kitty,car-kitty,kier,distractor,50,55,0.47619047619047616,-0.2924528301886793,1,1,NA,1415,1,1666.6666666666667,1666.6666666666667,1666.6666666666667,-11,distractor
449_779_swingley_aslin_2002_14,99,449,swingley_aslin_2002,14,opal,apple,ball,apple-ball,opal,distractor,10,92,0.09803921568627451,-0.018867924528301883,1,1,NA,990,2,333.33333333333337,333.33333333333337,333.33333333333337,-11,distractor
449_779_swingley_aslin_2002_14,101,449,swingley_aslin_2002,14,yitty,kitty,car,car-kitty,yitty,distractor,23,81,0.22115384615384615,-0.3018867924528302,1,0,NA,NA,1,766.6666666666667,766.6666666666667,766.6666666666667,-11,distractor
449_779_swingley_aslin_2002_14,105,449,swingley_aslin_2002,14,raby,baby,dog,baby-dog,raby,distractor,55,49,0.5288461538461539,NA,1,1,NA,515,2,1833.3333333333335,1833.3333333333335,1833.3333333333335,-11,distractor
449_779_swingley_aslin_2002_14,110,449,swingley_aslin_2002,14,shawl,ball,apple,apple-ball,shawl,distractor,52,12,0.8125,-0.37735849056603776,2,1,NA,340,1,866.6666666666667,866.6666666666667,866.6666666666667,-11,distractor
450_780_swingley_aslin_2002_14,49,450,swingley_aslin_2002,14,yitty,kitty,car,car-kitty,yitty,distractor,94,10,0.9038461538461539,0.17924528301886788,1,1,NA,140,0,3133.3333333333335,3133.3333333333335,3133.3333333333335,-11,distractor
450_780_swingley_aslin_2002_14,51,450,swingley_aslin_2002,14,kier,car,kitty,car-kitty,kier,distractor,58,44,0.5686274509803921,0.22169811320754718,2,1,NA,90,2,966.6666666666667,1466.6666666666667,1466.6666666666667,-11,distractor
450_780_swingley_aslin_2002_14,52,450,swingley_aslin_2002,14,raby,baby,dog,baby-dog,raby,distractor,104,1,0.9904761904761905,0.5235849056603774,1,1,NA,15,0,3466.666666666667,3466.666666666667,3466.666666666667,-11,distractor
450_780_swingley_aslin_2002_14,53,450,swingley_aslin_2002,14,shawl,ball,apple,apple-ball,shawl,distractor,58,47,0.5523809523809524,NA,1,1,NA,1215,1,1933.3333333333335,1933.3333333333335,1933.3333333333335,-11,distractor
450_780_swingley_aslin_2002_14,56,450,swingley_aslin_2002,14,raby,baby,dog,baby-dog,raby,distractor,65,37,0.6372549019607843,0.5235849056603774,2,1,NA,990,1,1083.3333333333335,1800.0000000000002,1800.0000000000002,-11,distractor
450_780_swingley_aslin_2002_14,57,450,swingley_aslin_2002,14,mog,dog,baby,baby-dog,mog,distractor,74,29,0.7184466019417476,0.5188679245283019,1,1,NA,815,1,2466.666666666667,2466.666666666667,2466.666666666667,-11,distractor
450_780_swingley_aslin_2002_14,58,450,swingley_aslin_2002,14,kier,car,kitty,car-kitty,kier,distractor,58,44,0.5686274509803921,0.22169811320754718,1,1,NA,1140,1,1933.3333333333335,1933.3333333333335,1933.3333333333335,-11,distractor
450_780_swingley_aslin_2002_14,59,450,swingley_aslin_2002,14,yitty,kitty,car,car-kitty,yitty,distractor,32,59,0.3516483516483517,0.17924528301886788,1,1,NA,890,2,1066.6666666666667,1066.6666666666667,1066.6666666666667,-11,distractor
451_781_swingley_aslin_2002_15,89,451,swingley_aslin_2002,15,kier,car,kitty,car-kitty,kier,distractor,83,21,0.7980769230769231,NA,1,1,NA,590,1,2766.666666666667,2766.666666666667,2766.666666666667,-10,distractor
451_781_swingley_aslin_2002_15,92,451,swingley_aslin_2002,15,raby,baby,dog,baby-dog,raby,distractor,0,106,0,NA,NA,0,NA,NA,0,NA,NA,NA,-10,distractor
451_781_swingley_aslin_2002_15,97,451,swingley_aslin_2002,15,shawl,ball,apple,apple-ball,shawl,distractor,0,93,0,-1,NA,0,NA,NA,0,NA,NA,NA,-10,distractor
451_781_swingley_aslin_2002_15,99,451,swingley_aslin_2002,15,opal,apple,ball,apple-ball,opal,distractor,0,106,0,-0.8773584905660378,NA,0,NA,NA,0,NA,NA,NA,-10,distractor
452_782_swingley_aslin_2002_15,36,452,swingley_aslin_2002,15,mog,dog,baby,baby-dog,mog,distractor,73,30,0.7087378640776699,0.24528301886792447,1,1,NA,290,2,2433.3333333333335,2433.3333333333335,2433.3333333333335,-10,distractor
452_782_swingley_aslin_2002_15,38,452,swingley_aslin_2002,15,shawl,ball,apple,apple-ball,shawl,distractor,72,30,0.7058823529411765,NA,1,1,NA,740,1,2400,2400,2400,-10,distractor
452_782_swingley_aslin_2002_15,41,452,swingley_aslin_2002,15,raby,baby,dog,baby-dog,raby,distractor,54,47,0.5346534653465347,0.22641509433962265,1,1,NA,890,2,1800.0000000000002,1800.0000000000002,1800.0000000000002,-10,distractor
452_782_swingley_aslin_2002_15,42,452,swingley_aslin_2002,15,kier,car,kitty,car-kitty,kier,distractor,90,13,0.8737864077669902,0.5,1,1,NA,415,1,3000,3000,3000,-10,distractor
452_782_swingley_aslin_2002_15,44,452,swingley_aslin_2002,15,yitty,kitty,car,car-kitty,yitty,distractor,65,37,0.6372549019607843,0.49056603773584906,1,1,NA,490,2,2166.666666666667,2166.666666666667,2166.666666666667,-10,distractor
453_783_swingley_aslin_2002_15,36,453,swingley_aslin_2002,15,mog,dog,baby,baby-dog,mog,distractor,0,106,0,NA,NA,0,NA,NA,0,NA,NA,NA,-10,distractor
454_784_swingley_aslin_2002_15,33,454,swingley_aslin_2002,15,kier,car,kitty,car-kitty,kier,distractor,55,49,0.5288461538461539,-0.33490566037735847,1,1,NA,1290,1,1833.3333333333335,1833.3333333333335,1833.3333333333335,-10,distractor
454_784_swingley_aslin_2002_15,42,454,swingley_aslin_2002,15,yitty,kitty,car,car-kitty,yitty,distractor,30,75,0.2857142857142857,-0.3207547169811321,1,1,NA,740,2,1000.0000000000001,1000.0000000000001,1000.0000000000001,-10,distractor
454_784_swingley_aslin_2002_15,46,454,swingley_aslin_2002,15,shawl,ball,apple,apple-ball,shawl,distractor,68,31,0.6868686868686869,0.09433962264150941,2,1,NA,90,2,1133.3333333333335,1633.3333333333335,1633.3333333333335,-10,distractor
454_784_swingley_aslin_2002_15,51,454,swingley_aslin_2002,15,yitty,kitty,car,car-kitty,yitty,distractor,0,106,0,-0.3207547169811321,NA,0,NA,NA,0,NA,NA,NA,-10,distractor
454_784_swingley_aslin_2002_15,53,454,swingley_aslin_2002,15,opal,apple,ball,apple-ball,opal,distractor,46,58,0.4423076923076923,0.14150943396226418,1,1,NA,290,2,1533.3333333333335,1533.3333333333335,1533.3333333333335,-10,distractor
455_785_swingley_aslin_2002_14,47,455,swingley_aslin_2002,14,mog,dog,baby,baby-dog,mog,distractor,52,47,0.5252525252525253,0.24056603773584906,1,1,NA,290,2,1666.6666666666667,1666.6666666666667,1666.6666666666667,-11,distractor
455_785_swingley_aslin_2002_14,48,455,swingley_aslin_2002,14,kier,car,kitty,car-kitty,kier,distractor,16,87,0.1553398058252427,NA,1,1,NA,1090,2,533.3333333333334,533.3333333333334,533.3333333333334,-11,distractor
455_785_swingley_aslin_2002_14,49,455,swingley_aslin_2002,14,raby,baby,dog,baby-dog,raby,distractor,81,23,0.7788461538461539,0.26886792452830194,1,1,NA,640,1,2700,2700,2700,-11,distractor
455_785_swingley_aslin_2002_14,51,455,swingley_aslin_2002,14,opal,apple,ball,apple-ball,opal,distractor,50,55,0.47619047619047616,NA,1,1,NA,1415,1,1666.6666666666667,1666.6666666666667,1666.6666666666667,-11,distractor
455_785_swingley_aslin_2002_14,54,455,swingley_aslin_2002,14,mog,dog,baby,baby-dog,mog,distractor,45,58,0.4368932038834951,0.24056603773584906,2,1,NA,115,2,750,933.3333333333334,933.3333333333334,-11,distractor
455_785_swingley_aslin_2002_14,55,455,swingley_aslin_2002,14,kier,car,kitty,car-kitty,kier,distractor,59,45,0.5673076923076923,NA,1,1,NA,1190,1,1966.6666666666667,1966.6666666666667,1966.6666666666667,-11,distractor
456_786_swingley_aslin_2002_15,36,456,swingley_aslin_2002,15,mog,dog,baby,baby-dog,mog,distractor,40,63,0.3883495145631068,-0.6981132075471699,1,1,NA,690,2,1333.3333333333335,1333.3333333333335,1333.3333333333335,-10,distractor
456_786_swingley_aslin_2002_15,40,456,swingley_aslin_2002,15,shawl,ball,apple,apple-ball,shawl,distractor,105,0,1,NA,1,1,NA,40,0,3500.0000000000005,3500.0000000000005,3500.0000000000005,-10,distractor
456_786_swingley_aslin_2002_15,41,456,swingley_aslin_2002,15,raby,baby,dog,baby-dog,raby,distractor,0,106,0,-0.6698113207547169,NA,0,NA,NA,0,NA,NA,NA,-10,distractor
456_786_swingley_aslin_2002_15,42,456,swingley_aslin_2002,15,kier,car,kitty,car-kitty,kier,distractor,23,70,0.24731182795698925,NA,2,1,NA,240,3,383.33333333333337,333.33333333333337,433.33333333333337,-10,distractor
456_786_swingley_aslin_2002_15,43,456,swingley_aslin_2002,15,mog,dog,baby,baby-dog,mog,distractor,24,79,0.23300970873786409,-0.6981132075471699,1,1,NA,540,2,800,800,800,-10,distractor
457_787_swingley_aslin_2002_14,48,457,swingley_aslin_2002,14,opal,apple,ball,apple-ball,opal,distractor,54,50,0.5192307692307693,-0.339622641509434,1,1,NA,440,2,1800.0000000000002,1800.0000000000002,1800.0000000000002,-11,distractor
457_787_swingley_aslin_2002_14,50,457,swingley_aslin_2002,14,mog,dog,baby,baby-dog,mog,distractor,54,51,0.5142857142857142,-0.19811320754716982,1,1,NA,1315,1,1800.0000000000002,1800.0000000000002,1800.0000000000002,-11,distractor
457_787_swingley_aslin_2002_14,51,457,swingley_aslin_2002,14,kier,car,kitty,car-kitty,kier,distractor,50,51,0.49504950495049505,NA,2,1,NA,540,3,833.3333333333334,600,1066.6666666666667,-11,distractor
457_787_swingley_aslin_2002_14,52,457,swingley_aslin_2002,14,raby,baby,dog,baby-dog,raby,distractor,37,56,0.3978494623655914,-0.3113207547169811,1,1,NA,740,2,1133.3333333333335,1133.3333333333335,1133.3333333333335,-11,distractor
457_787_swingley_aslin_2002_14,53,457,swingley_aslin_2002,14,shawl,ball,apple,apple-ball,shawl,distractor,13,90,0.1262135922330097,-0.34905660377358494,1,1,NA,990,2,433.33333333333337,433.33333333333337,433.33333333333337,-11,distractor
457_787_swingley_aslin_2002_14,57,457,swingley_aslin_2002,14,mog,dog,baby,baby-dog,mog,distractor,16,89,0.1523809523809524,-0.19811320754716982,1,0,NA,NA,2,533.3333333333334,533.3333333333334,533.3333333333334,-11,distractor
457_787_swingley_aslin_2002_14,58,457,swingley_aslin_2002,14,kier,car,kitty,car-kitty,kier,distractor,28,72,0.28,NA,2,1,NA,915,4,466.6666666666667,533.3333333333334,533.3333333333334,-11,distractor
458_788_swingley_aslin_2002_15,48,458,swingley_aslin_2002,15,opal,apple,ball,apple-ball,opal,distractor,58,43,0.5742574257425742,NA,1,1,NA,590,2,1933.3333333333335,1933.3333333333335,1933.3333333333335,-10,distractor
458_788_swingley_aslin_2002_15,49,458,swingley_aslin_2002,15,yitty,kitty,car,car-kitty,yitty,distractor,13,91,0.125,NA,1,0,NA,NA,1,433.33333333333337,433.33333333333337,433.33333333333337,-10,distractor
458_788_swingley_aslin_2002_15,57,458,swingley_aslin_2002,15,mog,dog,baby,baby-dog,mog,distractor,63,39,0.6176470588235294,NA,2,1,NA,315,4,1050,666.6666666666667,1433.3333333333335,-10,distractor
458_788_swingley_aslin_2002_15,59,458,swingley_aslin_2002,15,yitty,kitty,car,car-kitty,yitty,distractor,51,53,0.49038461538461536,NA,1,1,NA,315,2,1700.0000000000002,1700.0000000000002,1700.0000000000002,-10,distractor
459_789_swingley_aslin_2002_15,45,459,swingley_aslin_2002,15,opal,apple,ball,apple-ball,opal,distractor,13,87,0.13,NA,1,1,NA,790,2,433.33333333333337,433.33333333333337,433.33333333333337,-10,distractor
459_789_swingley_aslin_2002_15,46,459,swingley_aslin_2002,15,yitty,kitty,car,car-kitty,yitty,distractor,42,54,0.4375,-0.17924528301886788,2,1,NA,815,3,700,833.3333333333334,833.3333333333334,-10,distractor
459_789_swingley_aslin_2002_15,47,459,swingley_aslin_2002,15,mog,dog,baby,baby-dog,mog,distractor,38,64,0.37254901960784315,0.05188679245283018,1,0,NA,NA,1,1266.6666666666667,1266.6666666666667,1266.6666666666667,-10,distractor
459_789_swingley_aslin_2002_15,49,459,swingley_aslin_2002,15,raby,baby,dog,baby-dog,raby,distractor,66,36,0.6470588235294118,0.061320754716981174,1,1,NA,90,1,2200,2200,2200,-10,distractor
459_789_swingley_aslin_2002_15,53,459,swingley_aslin_2002,15,raby,baby,dog,baby-dog,raby,distractor,75,29,0.7211538461538461,0.061320754716981174,1,1,NA,790,1,2500,2500,2500,-10,distractor
459_789_swingley_aslin_2002_15,55,459,swingley_aslin_2002,15,kier,car,kitty,car-kitty,kier,distractor,44,61,0.41904761904761906,-0.09433962264150941,1,1,NA,415,2,1466.6666666666667,1466.6666666666667,1466.6666666666667,-10,distractor
460_790_swingley_aslin_2002_15,1,460,swingley_aslin_2002,15,cur,car,kitty,car-kitty,cur,distractor,93,11,0.8942307692307693,NA,1,1,NA,190,0,3100,3100,3100,-10,distractor
460_790_swingley_aslin_2002_15,97,460,swingley_aslin_2002,15,vaby,baby,dog,baby-dog,vaby,distractor,86,20,0.8113207547169812,-0.03301886792452824,1,1,NA,515,1,2866.666666666667,2866.666666666667,2866.666666666667,-10,distractor
460_790_swingley_aslin_2002_15,99,460,swingley_aslin_2002,15,tog,dog,baby,baby-dog,tog,distractor,35,69,0.33653846153846156,-0.04716981132075476,1,1,NA,1315,2,1166.6666666666667,1166.6666666666667,1166.6666666666667,-10,distractor
460_790_swingley_aslin_2002_15,101,460,swingley_aslin_2002,15,gall,ball,apple,apple-ball,gall,distractor,43,38,0.5308641975308642,NA,1,0,NA,NA,1,1433.3333333333335,1433.3333333333335,1433.3333333333335,-10,distractor
460_790_swingley_aslin_2002_15,103,460,swingley_aslin_2002,15,vaby,baby,dog,baby-dog,vaby,distractor,45,60,0.42857142857142855,-0.03301886792452824,1,0,NA,NA,1,1500,1500,1500,-10,distractor
461_791_swingley_aslin_2002_14,1,461,swingley_aslin_2002,14,pity,kitty,car,car-kitty,pity,distractor,99,5,0.9519230769230769,0.7735849056603774,1,1,NA,190,0,3300.0000000000005,3300.0000000000005,3300.0000000000005,-11,distractor
461_791_swingley_aslin_2002_14,3,461,swingley_aslin_2002,14,cur,car,kitty,car-kitty,cur,distractor,87,17,0.8365384615384616,0.7735849056603774,1,1,NA,490,1,2900,2900,2900,-11,distractor
461_791_swingley_aslin_2002_14,16,461,swingley_aslin_2002,14,gall,ball,apple,apple-ball,gall,distractor,0,106,0,NA,NA,0,NA,NA,0,NA,NA,NA,-11,distractor
462_792_swingley_aslin_2002_14,2,462,swingley_aslin_2002,14,opple,apple,ball,apple-ball,opple,distractor,52,49,0.5148514851485149,0.09433962264150941,1,1,NA,1290,1,1733.3333333333335,1733.3333333333335,1733.3333333333335,-11,distractor
462_792_swingley_aslin_2002_14,5,462,swingley_aslin_2002,14,tog,dog,baby,baby-dog,tog,distractor,58,43,0.5742574257425742,0.2830188679245283,1,1,NA,390,2,1933.3333333333335,1933.3333333333335,1933.3333333333335,-11,distractor
462_792_swingley_aslin_2002_14,11,462,swingley_aslin_2002,14,gall,ball,apple,apple-ball,gall,distractor,57,42,0.5757575757575758,0.07547169811320753,2,1,NA,615,3,950.0000000000001,1633.3333333333335,1633.3333333333335,-11,distractor
462_792_swingley_aslin_2002_14,18,462,swingley_aslin_2002,14,vaby,baby,dog,baby-dog,vaby,distractor,77,28,0.7333333333333333,0.320754716981132,1,1,NA,740,1,2566.666666666667,2566.666666666667,2566.666666666667,-11,distractor
462_792_swingley_aslin_2002_14,23,462,swingley_aslin_2002,14,cur,car,kitty,car-kitty,cur,distractor,0,106,0,-0.32075471698113206,NA,0,NA,NA,0,NA,NA,NA,-11,distractor
462_792_swingley_aslin_2002_14,25,462,swingley_aslin_2002,14,pity,kitty,car,car-kitty,pity,distractor,67,34,0.6633663366336634,-0.3679245283018868,2,1,NA,390,3,1116.6666666666667,1333.3333333333335,1333.3333333333335,-11,distractor
463_793_swingley_aslin_2002_15,3,463,swingley_aslin_2002,15,pity,kitty,car,car-kitty,pity,distractor,13,79,0.14130434782608695,0.042452830188679236,1,0,NA,NA,2,433.33333333333337,433.33333333333337,433.33333333333337,-10,distractor
463_793_swingley_aslin_2002_15,10,463,swingley_aslin_2002,15,vaby,baby,dog,baby-dog,vaby,distractor,37,65,0.3627450980392157,-0.018867924528301883,1,0,NA,NA,1,1233.3333333333335,1233.3333333333335,1233.3333333333335,-10,distractor
463_793_swingley_aslin_2002_15,11,463,swingley_aslin_2002,15,gall,ball,apple,apple-ball,gall,distractor,0,106,0,-0.4716981132075472,NA,0,NA,NA,0,NA,NA,NA,-10,distractor
463_793_swingley_aslin_2002_15,13,463,swingley_aslin_2002,15,opple,apple,ball,apple-ball,opple,distractor,44,50,0.46808510638297873,-0.5849056603773585,1,1,NA,415,2,1466.6666666666667,1466.6666666666667,1466.6666666666667,-10,distractor
463_793_swingley_aslin_2002_15,20,463,swingley_aslin_2002,15,tog,dog,baby,baby-dog,tog,distractor,65,39,0.625,0,1,1,NA,1040,1,2166.666666666667,2166.666666666667,2166.666666666667,-10,distractor
463_793_swingley_aslin_2002_15,23,463,swingley_aslin_2002,15,cur,car,kitty,car-kitty,cur,distractor,82,21,0.7961165048543689,0.10849056603773588,1,1,NA,615,1,2733.3333333333335,2733.3333333333335,2733.3333333333335,-10,distractor
463_793_swingley_aslin_2002_15,25,463,swingley_aslin_2002,15,pity,kitty,car,car-kitty,pity,distractor,38,62,0.38,0.042452830188679236,1,1,NA,940,2,1266.6666666666667,1266.6666666666667,1266.6666666666667,-10,distractor
464_794_swingley_aslin_2002_15,1,464,swingley_aslin_2002,15,pity,kitty,car,car-kitty,pity,distractor,6,99,0.05714285714285714,NA,NA,0,NA,NA,0,NA,200,NA,-10,distractor
464_794_swingley_aslin_2002_15,132,464,swingley_aslin_2002,15,vaby,baby,dog,baby-dog,vaby,distractor,63,42,0.6,0.07547169811320753,1,1,NA,15,1,2100,2100,2100,-10,distractor
464_794_swingley_aslin_2002_15,135,464,swingley_aslin_2002,15,gall,ball,apple,apple-ball,gall,distractor,0,106,0,-0.16037735849056603,NA,0,NA,NA,0,NA,NA,NA,-10,distractor
464_794_swingley_aslin_2002_15,136,464,swingley_aslin_2002,15,opple,apple,ball,apple-ball,opple,distractor,86,17,0.8349514563106796,-0.18867924528301883,1,1,NA,515,1,2866.666666666667,2866.666666666667,2866.666666666667,-10,distractor
464_794_swingley_aslin_2002_15,137,464,swingley_aslin_2002,15,tog,dog,baby,baby-dog,tog,distractor,37,55,0.40217391304347827,-0.04716981132075476,1,1,NA,1190,2,1233.3333333333335,1233.3333333333335,1233.3333333333335,-10,distractor
464_794_swingley_aslin_2002_15,138,464,swingley_aslin_2002,15,pity,kitty,car,car-kitty,pity,distractor,26,39,0.4,NA,1,0,NA,NA,1,866.6666666666667,866.6666666666667,866.6666666666667,-10,distractor
464_794_swingley_aslin_2002_15,141,464,swingley_aslin_2002,15,gall,ball,apple,apple-ball,gall,distractor,0,106,0,-0.16037735849056603,NA,0,NA,NA,0,NA,NA,NA,-10,distractor
465_795_swingley_aslin_2002_15,1,465,swingley_aslin_2002,15,pity,kitty,car,car-kitty,pity,distractor,0,75,0,-0.4528301886792453,NA,0,NA,NA,0,NA,NA,NA,-10,distractor
465_795_swingley_aslin_2002_15,131,465,swingley_aslin_2002,15,cur,car,kitty,car-kitty,cur,distractor,57,48,0.5428571428571428,-0.16981132075471694,1,1,NA,390,2,1900.0000000000002,1900.0000000000002,1900.0000000000002,-10,distractor
465_795_swingley_aslin_2002_15,132,465,swingley_aslin_2002,15,vaby,baby,dog,baby-dog,vaby,distractor,73,32,0.6952380952380952,0.09433962264150941,1,1,NA,840,1,2433.3333333333335,2433.3333333333335,2433.3333333333335,-10,distractor
465_795_swingley_aslin_2002_15,134,465,swingley_aslin_2002,15,opple,apple,ball,apple-ball,opple,distractor,29,76,0.2761904761904762,NA,1,0,NA,NA,1,966.6666666666667,966.6666666666667,966.6666666666667,-10,distractor
465_795_swingley_aslin_2002_15,136,465,swingley_aslin_2002,15,opple,apple,ball,apple-ball,opple,distractor,76,27,0.7378640776699029,NA,1,1,NA,315,2,2533.3333333333335,2533.3333333333335,2533.3333333333335,-10,distractor
465_795_swingley_aslin_2002_15,137,465,swingley_aslin_2002,15,tog,dog,baby,baby-dog,tog,distractor,31,63,0.32978723404255317,-0.009433962264150941,1,0,NA,NA,1,1033.3333333333335,1033.3333333333335,1033.3333333333335,-10,distractor
466_796_swingley_aslin_2002_15,132,466,swingley_aslin_2002,15,vaby,baby,dog,baby-dog,vaby,distractor,0,106,0,NA,NA,0,NA,NA,0,NA,NA,NA,-10,distractor
466_796_swingley_aslin_2002_15,134,466,swingley_aslin_2002,15,opple,apple,ball,apple-ball,opple,distractor,91,13,0.875,NA,1,1,NA,390,1,3033.3333333333335,3033.3333333333335,3033.3333333333335,-10,distractor
466_796_swingley_aslin_2002_15,138,466,swingley_aslin_2002,15,pity,kitty,car,car-kitty,pity,distractor,80,22,0.7843137254901961,NA,1,1,NA,490,1,2666.666666666667,2666.666666666667,2666.666666666667,-10,distractor
466_796_swingley_aslin_2002_15,139,466,swingley_aslin_2002,15,vaby,baby,dog,baby-dog,vaby,distractor,26,74,0.26,NA,1,1,NA,190,1,866.6666666666667,866.6666666666667,866.6666666666667,-10,distractor
467_797_swingley_aslin_2002_14,2,467,swingley_aslin_2002,14,opple,apple,ball,apple-ball,opple,distractor,41,56,0.422680412371134,NA,1,1,NA,690,2,1200,1200,1200,-11,distractor
467_797_swingley_aslin_2002_14,3,467,swingley_aslin_2002,14,pity,kitty,car,car-kitty,pity,distractor,15,89,0.14423076923076922,-0.7122641509433962,1,0,NA,NA,1,500.00000000000006,500.00000000000006,500.00000000000006,-11,distractor
467_797_swingley_aslin_2002_14,10,467,swingley_aslin_2002,14,vaby,baby,dog,baby-dog,vaby,distractor,22,83,0.20952380952380953,NA,1,0,NA,NA,1,733.3333333333334,733.3333333333334,733.3333333333334,-11,distractor
467_797_swingley_aslin_2002_14,18,467,swingley_aslin_2002,14,vaby,baby,dog,baby-dog,vaby,distractor,0,106,0,NA,NA,0,NA,NA,0,NA,NA,NA,-11,distractor
467_797_swingley_aslin_2002_14,23,467,swingley_aslin_2002,14,cur,car,kitty,car-kitty,cur,distractor,0,106,0,-0.6886792452830188,NA,0,NA,NA,0,NA,NA,NA,-11,distractor
467_797_swingley_aslin_2002_14,25,467,swingley_aslin_2002,14,pity,kitty,car,car-kitty,pity,distractor,46,57,0.44660194174757284,-0.7122641509433962,1,1,NA,840,2,1533.3333333333335,1533.3333333333335,1533.3333333333335,-11,distractor
468_798_swingley_aslin_2002_14,1,468,swingley_aslin_2002,14,cur,car,kitty,car-kitty,cur,distractor,69,35,0.6634615384615384,NA,1,1,NA,15,1,2300,2300,2300,-11,distractor
468_798_swingley_aslin_2002_14,97,468,swingley_aslin_2002,14,vaby,baby,dog,baby-dog,vaby,distractor,39,65,0.375,-0.13207547169811323,1,0,NA,NA,1,1300,1300,1300,-11,distractor
468_798_swingley_aslin_2002_14,100,468,swingley_aslin_2002,14,opple,apple,ball,apple-ball,opple,distractor,50,55,0.47619047619047616,0.061320754716981174,1,1,NA,1415,1,1666.6666666666667,1666.6666666666667,1666.6666666666667,-11,distractor
468_798_swingley_aslin_2002_14,101,468,swingley_aslin_2002,14,gall,ball,apple,apple-ball,gall,distractor,49,55,0.47115384615384615,0.05188679245283018,1,1,NA,1440,1,1633.3333333333335,1633.3333333333335,1633.3333333333335,-11,distractor
468_798_swingley_aslin_2002_14,102,468,swingley_aslin_2002,14,tog,dog,baby,baby-dog,tog,distractor,51,53,0.49038461538461536,-0.13207547169811318,1,1,NA,1390,1,1700.0000000000002,1700.0000000000002,1700.0000000000002,-11,distractor
468_798_swingley_aslin_2002_14,118,468,swingley_aslin_2002,14,opple,apple,ball,apple-ball,opple,distractor,73,32,0.6952380952380952,0.061320754716981174,1,1,NA,840,1,2433.3333333333335,2433.3333333333335,2433.3333333333335,-11,distractor
468_798_swingley_aslin_2002_14,119,468,swingley_aslin_2002,14,cur,car,kitty,car-kitty,cur,distractor,0,56,0,NA,NA,0,NA,NA,0,NA,NA,NA,-11,distractor
469_799_swingley_aslin_2002_14,1,469,swingley_aslin_2002,14,pity,kitty,car,car-kitty,pity,distractor,53,52,0.5047619047619047,0.018867924528301883,1,1,NA,1340,1,1766.6666666666667,1766.6666666666667,1766.6666666666667,-11,distractor
469_799_swingley_aslin_2002_14,131,469,swingley_aslin_2002,14,cur,car,kitty,car-kitty,cur,distractor,54,51,0.5142857142857142,0.018867924528301883,1,1,NA,1315,1,1800.0000000000002,1800.0000000000002,1800.0000000000002,-11,distractor
469_799_swingley_aslin_2002_14,134,469,swingley_aslin_2002,14,opple,apple,ball,apple-ball,opple,distractor,41,62,0.39805825242718446,NA,2,1,NA,615,3,683.3333333333334,1066.6666666666667,1066.6666666666667,-11,distractor
469_799_swingley_aslin_2002_14,136,469,swingley_aslin_2002,14,opple,apple,ball,apple-ball,opple,distractor,33,56,0.3707865168539326,NA,1,1,NA,815,2,1100,1100,1100,-11,distractor
470_800_swingley_aslin_2002_14,2,470,swingley_aslin_2002,14,opple,apple,ball,apple-ball,opple,distractor,0,106,0,-0.3584905660377358,NA,0,NA,NA,0,NA,NA,NA,-11,distractor
470_800_swingley_aslin_2002_14,3,470,swingley_aslin_2002,14,pity,kitty,car,car-kitty,pity,distractor,87,13,0.87,0.6320754716981132,2,1,NA,190,2,1450,1533.3333333333335,1533.3333333333335,-11,distractor
470_800_swingley_aslin_2002_14,17,470,swingley_aslin_2002,14,gall,ball,apple,apple-ball,gall,distractor,65,38,0.6310679611650486,-0.3867924528301887,1,1,NA,515,2,2166.666666666667,2166.666666666667,2166.666666666667,-11,distractor
470_800_swingley_aslin_2002_14,18,470,swingley_aslin_2002,14,vaby,baby,dog,baby-dog,vaby,distractor,0,106,0,NA,NA,0,NA,NA,0,NA,NA,NA,-11,distractor
470_800_swingley_aslin_2002_14,23,470,swingley_aslin_2002,14,cur,car,kitty,car-kitty,cur,distractor,85,20,0.8095238095238095,0.679245283018868,1,1,NA,540,1,2833.3333333333335,2833.3333333333335,2833.3333333333335,-11,distractor
471_801_swingley_aslin_2002_14,1,471,swingley_aslin_2002,14,cur,car,kitty,car-kitty,cur,distractor,53,52,0.5047619047619047,-0.2264150943396226,1,1,NA,1340,1,1766.6666666666667,1766.6666666666667,1766.6666666666667,-11,distractor
471_801_swingley_aslin_2002_14,20,471,swingley_aslin_2002,14,pity,kitty,car,car-kitty,pity,distractor,25,77,0.24509803921568626,-0.25471698113207547,1,1,NA,740,2,666.6666666666667,666.6666666666667,666.6666666666667,-11,distractor
471_801_swingley_aslin_2002_14,100,471,swingley_aslin_2002,14,opple,apple,ball,apple-ball,opple,distractor,50,52,0.49019607843137253,NA,2,1,NA,140,2,833.3333333333334,1300,1300,-11,distractor
471_801_swingley_aslin_2002_14,103,471,swingley_aslin_2002,14,vaby,baby,dog,baby-dog,vaby,distractor,37,64,0.36633663366336633,NA,1,0,NA,NA,1,1233.3333333333335,1233.3333333333335,1233.3333333333335,-11,distractor
471_801_swingley_aslin_2002_14,118,471,swingley_aslin_2002,14,opple,apple,ball,apple-ball,opple,distractor,67,37,0.6442307692307693,NA,1,1,NA,990,1,2233.3333333333335,2233.3333333333335,2233.3333333333335,-11,distractor
472_802_swingley_aslin_2002_15,46,472,swingley_aslin_2002,15,yitty,kitty,car,car-kitty,yitty,distractor,29,74,0.2815533980582524,-0.14622641509433965,1,1,NA,1390,2,966.6666666666667,966.6666666666667,966.6666666666667,-10,distractor
472_802_swingley_aslin_2002_15,89,472,swingley_aslin_2002,15,kier,car,kitty,car-kitty,kier,distractor,57,46,0.5533980582524272,-0.15094339622641506,1,1,NA,115,1,1900.0000000000002,1900.0000000000002,1900.0000000000002,-10,distractor
472_802_swingley_aslin_2002_15,92,472,swingley_aslin_2002,15,raby,baby,dog,baby-dog,raby,distractor,0,106,0,NA,NA,0,NA,NA,0,NA,NA,NA,-10,distractor
472_802_swingley_aslin_2002_15,97,472,swingley_aslin_2002,15,shawl,ball,apple,apple-ball,shawl,distractor,47,57,0.4519230769230769,0.014150943396226412,1,1,NA,1015,2,1566.6666666666667,1566.6666666666667,1566.6666666666667,-10,distractor
472_802_swingley_aslin_2002_15,99,472,swingley_aslin_2002,15,opal,apple,ball,apple-ball,opal,distractor,65,40,0.6190476190476191,0.004716981132075526,1,1,NA,1040,1,2166.666666666667,2166.666666666667,2166.666666666667,-10,distractor
472_802_swingley_aslin_2002_15,101,472,swingley_aslin_2002,15,yitty,kitty,car,car-kitty,yitty,distractor,32,72,0.3076923076923077,-0.14622641509433965,1,0,NA,NA,2,1066.6666666666667,1066.6666666666667,1066.6666666666667,-10,distractor
472_802_swingley_aslin_2002_15,105,472,swingley_aslin_2002,15,raby,baby,dog,baby-dog,raby,distractor,63,41,0.6057692307692307,NA,1,1,NA,1090,1,2100,2100,2100,-10,distractor
472_802_swingley_aslin_2002_15,108,472,swingley_aslin_2002,15,opal,apple,ball,apple-ball,opal,distractor,50,51,0.49504950495049505,0.004716981132075526,1,1,NA,990,2,1666.6666666666667,1666.6666666666667,1666.6666666666667,-10,distractor
473_803_swingley_aslin_2002_15,33,473,swingley_aslin_2002,15,kier,car,kitty,car-kitty,kier,distractor,62,41,0.6019417475728155,-0.41509433962264153,1,1,NA,1115,1,2066.666666666667,2066.666666666667,2066.666666666667,-10,distractor
473_803_swingley_aslin_2002_15,47,473,swingley_aslin_2002,15,raby,baby,dog,baby-dog,raby,distractor,56,46,0.5490196078431373,NA,1,1,NA,690,2,1866.6666666666667,1866.6666666666667,1866.6666666666667,-10,distractor
473_803_swingley_aslin_2002_15,51,473,swingley_aslin_2002,15,yitty,kitty,car,car-kitty,yitty,distractor,0,106,0,-0.3867924528301887,NA,0,NA,NA,0,NA,NA,NA,-10,distractor
473_803_swingley_aslin_2002_15,53,473,swingley_aslin_2002,15,opal,apple,ball,apple-ball,opal,distractor,61,40,0.6039603960396039,NA,2,1,NA,215,2,1016.6666666666667,1033.3333333333335,1033.3333333333335,-10,distractor
473_803_swingley_aslin_2002_15,61,473,swingley_aslin_2002,15,raby,baby,dog,baby-dog,raby,distractor,87,17,0.8365384615384616,NA,1,1,NA,490,1,2900,2900,2900,-10,distractor
474_804_swingley_aslin_2002_14,89,474,swingley_aslin_2002,14,kier,car,kitty,car-kitty,kier,distractor,11,93,0.10576923076923077,-0.2735849056603774,1,0,NA,NA,1,366.6666666666667,366.6666666666667,366.6666666666667,-11,distractor
474_804_swingley_aslin_2002_14,97,474,swingley_aslin_2002,14,shawl,ball,apple,apple-ball,shawl,distractor,0,106,0,-0.8066037735849056,NA,0,NA,NA,0,NA,NA,NA,-11,distractor
474_804_swingley_aslin_2002_14,99,474,swingley_aslin_2002,14,opal,apple,ball,apple-ball,opal,distractor,0,65,0,-1,NA,0,NA,NA,0,NA,NA,NA,-11,distractor
474_804_swingley_aslin_2002_14,101,474,swingley_aslin_2002,14,yitty,kitty,car,car-kitty,yitty,distractor,62,40,0.6078431372549019,-0.2924528301886793,1,1,NA,1115,1,2066.666666666667,2066.666666666667,2066.666666666667,-11,distractor
474_804_swingley_aslin_2002_14,108,474,swingley_aslin_2002,14,opal,apple,ball,apple-ball,opal,distractor,0,106,0,-1,NA,0,NA,NA,0,NA,NA,NA,-11,distractor
475_805_swingley_aslin_2002_15,1,475,swingley_aslin_2002,15,pity,kitty,car,car-kitty,pity,distractor,0,59,0,-0.46226415094339623,NA,0,NA,NA,0,NA,NA,NA,-10,distractor
475_805_swingley_aslin_2002_15,9,475,swingley_aslin_2002,15,gall,ball,apple,apple-ball,gall,distractor,33,68,0.32673267326732675,NA,1,1,NA,1140,2,866.6666666666667,866.6666666666667,866.6666666666667,-10,distractor
475_805_swingley_aslin_2002_15,14,475,swingley_aslin_2002,15,cur,car,kitty,car-kitty,cur,distractor,52,49,0.5148514851485149,-0.06603773584905659,2,1,NA,615,3,866.6666666666667,500.00000000000006,1233.3333333333335,-10,distractor
475_805_swingley_aslin_2002_15,16,475,swingley_aslin_2002,15,gall,ball,apple,apple-ball,gall,distractor,30,73,0.2912621359223301,NA,1,0,NA,NA,1,1000.0000000000001,1000.0000000000001,1000.0000000000001,-10,distractor
476_806_swingley_aslin_2002_15,1,476,swingley_aslin_2002,15,opple,apple,ball,apple-ball,opple,distractor,53,50,0.5145631067961165,0.10377358490566035,1,1,NA,915,2,1766.6666666666667,1766.6666666666667,1766.6666666666667,-10,distractor
476_806_swingley_aslin_2002_15,10,476,swingley_aslin_2002,15,gall,ball,apple,apple-ball,gall,distractor,34,65,0.3434343434343434,0.09433962264150941,1,1,NA,990,2,933.3333333333334,933.3333333333334,933.3333333333334,-10,distractor
476_806_swingley_aslin_2002_15,16,476,swingley_aslin_2002,15,gall,ball,apple,apple-ball,gall,distractor,86,19,0.819047619047619,0.09433962264150941,1,1,NA,515,1,2866.666666666667,2866.666666666667,2866.666666666667,-10,distractor
476_806_swingley_aslin_2002_15,17,476,swingley_aslin_2002,15,vaby,baby,dog,baby-dog,vaby,distractor,27,77,0.25961538461538464,NA,1,1,NA,40,1,900.0000000000001,900.0000000000001,900.0000000000001,-10,distractor
476_806_swingley_aslin_2002_15,24,476,swingley_aslin_2002,15,pity,kitty,car,car-kitty,pity,distractor,24,76,0.24,NA,1,1,NA,640,2,800,800,800,-10,distractor
477_807_swingley_aslin_2002_15,55,477,swingley_aslin_2002,15,kier,car,kitty,car-kitty,kier,distractor,42,19,0.6885245901639344,0.20754716981132076,2,1,NA,90,2,700,466.6666666666667,933.3333333333334,-10,distractor
477_807_swingley_aslin_2002_15,92,477,swingley_aslin_2002,15,raby,baby,dog,baby-dog,raby,distractor,22,79,0.21782178217821782,-0.7452830188679245,1,1,NA,940,2,733.3333333333334,733.3333333333334,733.3333333333334,-10,distractor
477_807_swingley_aslin_2002_15,99,477,swingley_aslin_2002,15,opal,apple,ball,apple-ball,opal,distractor,0,106,0,NA,NA,0,NA,NA,0,NA,NA,NA,-10,distractor
477_807_swingley_aslin_2002_15,100,477,swingley_aslin_2002,15,mog,dog,baby,baby-dog,mog,distractor,2,101,0.019417475728155338,-0.7264150943396226,NA,0,NA,NA,0,NA,NA,NA,-10,distractor
477_807_swingley_aslin_2002_15,101,477,swingley_aslin_2002,15,yitty,kitty,car,car-kitty,yitty,distractor,83,20,0.8058252427184466,0.6037735849056605,1,1,NA,590,1,2766.666666666667,2766.666666666667,2766.666666666667,-10,distractor
478_808_swingley_aslin_2002_15,1,478,swingley_aslin_2002,15,cur,car,kitty,car-kitty,cur,distractor,0,106,0,NA,NA,0,NA,NA,0,NA,NA,NA,-10,distractor
478_808_swingley_aslin_2002_15,97,478,swingley_aslin_2002,15,vaby,baby,dog,baby-dog,vaby,distractor,23,80,0.22330097087378642,-0.15094339622641506,1,0,NA,NA,1,766.6666666666667,766.6666666666667,766.6666666666667,-10,distractor
478_808_swingley_aslin_2002_15,99,478,swingley_aslin_2002,15,tog,dog,baby,baby-dog,tog,distractor,65,39,0.625,-0.14150943396226423,1,1,NA,1040,1,2166.666666666667,2166.666666666667,2166.666666666667,-10,distractor
478_808_swingley_aslin_2002_15,118,478,swingley_aslin_2002,15,opple,apple,ball,apple-ball,opple,distractor,47,56,0.4563106796116505,NA,1,0,NA,NA,1,1566.6666666666667,1566.6666666666667,1566.6666666666667,-10,distractor
479_809_swingley_aslin_2002_14,1,479,swingley_aslin_2002,14,pity,kitty,car,car-kitty,pity,distractor,47,55,0.46078431372549017,-0.13207547169811318,1,1,NA,1415,1,1566.6666666666667,1566.6666666666667,1566.6666666666667,-11,distractor
479_809_swingley_aslin_2002_14,3,479,swingley_aslin_2002,14,cur,car,kitty,car-kitty,cur,distractor,40,61,0.39603960396039606,-0.14150943396226412,2,1,NA,140,2,666.6666666666667,633.3333333333334,700,-11,distractor
479_809_swingley_aslin_2002_14,9,479,swingley_aslin_2002,14,gall,ball,apple,apple-ball,gall,distractor,44,56,0.44,0.10377358490566041,1,1,NA,390,2,1366.6666666666667,1366.6666666666667,1366.6666666666667,-11,distractor
479_809_swingley_aslin_2002_14,122,479,swingley_aslin_2002,14,opple,apple,ball,apple-ball,opple,distractor,70,33,0.6796116504854369,0.13207547169811318,1,1,NA,640,2,2333.3333333333335,2333.3333333333335,2333.3333333333335,-11,distractor
480_810_swingley_aslin_2002_14,21,480,swingley_aslin_2002,14,cur,car,kitty,car-kitty,cur,distractor,46,55,0.45544554455445546,NA,1,1,NA,790,2,1533.3333333333335,1533.3333333333335,1533.3333333333335,-11,distractor
480_810_swingley_aslin_2002_14,132,480,swingley_aslin_2002,14,vaby,baby,dog,baby-dog,vaby,distractor,24,78,0.23529411764705882,NA,1,1,NA,515,2,800,800,800,-11,distractor
480_810_swingley_aslin_2002_14,135,480,swingley_aslin_2002,14,gall,ball,apple,apple-ball,gall,distractor,67,34,0.6633663366336634,NA,2,1,NA,390,3,1116.6666666666667,333.33333333333337,1900.0000000000002,-11,distractor
480_810_swingley_aslin_2002_14,139,480,swingley_aslin_2002,14,vaby,baby,dog,baby-dog,vaby,distractor,45,53,0.45918367346938777,NA,2,1,NA,115,3,750,833.3333333333334,833.3333333333334,-11,distractor
481_811_swingley_aslin_2002_14,1,481,swingley_aslin_2002,14,pity,kitty,car,car-kitty,pity,distractor,40,58,0.40816326530612246,NA,2,1,NA,315,3,666.6666666666667,833.3333333333334,833.3333333333334,-11,distractor
481_811_swingley_aslin_2002_14,133,481,swingley_aslin_2002,14,tog,dog,baby,baby-dog,tog,distractor,38,62,0.38,-0.36792452830188677,1,1,NA,1190,2,1266.6666666666667,1266.6666666666667,1266.6666666666667,-11,distractor
481_811_swingley_aslin_2002_14,138,481,swingley_aslin_2002,14,pity,kitty,car,car-kitty,pity,distractor,42,58,0.42,NA,2,1,NA,890,3,700,966.6666666666667,966.6666666666667,-11,distractor
481_811_swingley_aslin_2002_14,139,481,swingley_aslin_2002,14,vaby,baby,dog,baby-dog,vaby,distractor,27,77,0.25961538461538464,-0.330188679245283,1,0,NA,NA,1,900.0000000000001,900.0000000000001,900.0000000000001,-11,distractor
482_812_swingley_aslin_2002_15,33,482,swingley_aslin_2002,15,kier,car,kitty,car-kitty,kier,distractor,56,45,0.5544554455445545,NA,2,1,NA,240,3,933.3333333333334,1300,1300,-10,distractor
482_812_swingley_aslin_2002_15,47,482,swingley_aslin_2002,15,raby,baby,dog,baby-dog,raby,distractor,0,106,0,NA,NA,0,NA,NA,0,NA,NA,NA,-10,distractor
482_812_swingley_aslin_2002_15,55,482,swingley_aslin_2002,15,shawl,ball,apple,apple-ball,shawl,distractor,50,48,0.5102040816326531,NA,2,1,NA,490,3,833.3333333333334,800,866.6666666666667,-10,distractor
483_813_swingley_aslin_2002_14,2,483,swingley_aslin_2002,14,opple,apple,ball,apple-ball,opple,distractor,62,43,0.5904761904761905,NA,1,1,NA,1115,1,2066.666666666667,2066.666666666667,2066.666666666667,-11,distractor
483_813_swingley_aslin_2002_14,10,483,swingley_aslin_2002,14,vaby,baby,dog,baby-dog,vaby,distractor,91,13,0.875,-0.14150943396226412,1,1,NA,390,1,3033.3333333333335,3033.3333333333335,3033.3333333333335,-11,distractor
483_813_swingley_aslin_2002_14,20,483,swingley_aslin_2002,14,tog,dog,baby,baby-dog,tog,distractor,0,106,0,-0.12264150943396226,NA,0,NA,NA,0,NA,NA,NA,-11,distractor
483_813_swingley_aslin_2002_14,25,483,swingley_aslin_2002,14,pity,kitty,car,car-kitty,pity,distractor,36,67,0.34951456310679613,NA,1,1,NA,90,1,1200,1200,1200,-11,distractor
484_814_swingley_aslin_2002_14,2,484,swingley_aslin_2002,14,opple,apple,ball,apple-ball,opple,distractor,33,72,0.3142857142857143,-0.4622641509433963,1,1,NA,890,2,1100,1100,1100,-11,distractor
484_814_swingley_aslin_2002_14,5,484,swingley_aslin_2002,14,tog,dog,baby,baby-dog,tog,distractor,57,46,0.5533980582524272,-0.11792452830188671,1,1,NA,490,2,1900.0000000000002,1900.0000000000002,1900.0000000000002,-11,distractor
484_814_swingley_aslin_2002_14,9,484,swingley_aslin_2002,14,cur,car,kitty,car-kitty,cur,distractor,0,106,0,-0.53301886792452835,NA,0,NA,NA,0,NA,NA,NA,-11,distractor
484_814_swingley_aslin_2002_14,11,484,swingley_aslin_2002,14,gall,ball,apple,apple-ball,gall,distractor,0,92,0,-0.5235849056603773,NA,0,NA,NA,0,NA,NA,NA,-11,distractor
484_814_swingley_aslin_2002_14,17,484,swingley_aslin_2002,14,gall,ball,apple,apple-ball,gall,distractor,33,72,0.3142857142857143,-0.5235849056603773,1,1,NA,390,2,1100,1100,1100,-11,distractor
484_814_swingley_aslin_2002_14,18,484,swingley_aslin_2002,14,vaby,baby,dog,baby-dog,vaby,distractor,35,69,0.33653846153846156,-0.11320754716981135,1,1,NA,440,2,1166.6666666666667,1166.6666666666667,1166.6666666666667,-11,distractor
484_814_swingley_aslin_2002_14,20,484,swingley_aslin_2002,14,tog,dog,baby,baby-dog,tog,distractor,56,48,0.5384615384615384,-0.11792452830188671,1,1,NA,515,2,1866.6666666666667,1866.6666666666667,1866.6666666666667,-11,distractor
484_814_swingley_aslin_2002_14,23,484,swingley_aslin_2002,14,cur,car,kitty,car-kitty,cur,distractor,63,41,0.6057692307692307,-0.53301886792452835,1,1,NA,1090,1,2100,2100,2100,-11,distractor
484_814_swingley_aslin_2002_14,25,484,swingley_aslin_2002,14,pity,kitty,car,car-kitty,pity,distractor,17,88,0.1619047619047619,-0.53301886792452835,1,0,NA,NA,1,566.6666666666667,566.6666666666667,566.6666666666667,-11,distractor
485_815_swingley_aslin_2002_14,97,485,swingley_aslin_2002,14,vaby,baby,dog,baby-dog,vaby,distractor,34,61,0.35789473684210527,NA,1,1,NA,590,2,933.3333333333334,933.3333333333334,933.3333333333334,-11,distractor
485_815_swingley_aslin_2002_14,101,485,swingley_aslin_2002,14,gall,ball,apple,apple-ball,gall,distractor,0,106,0,NA,NA,0,NA,NA,0,NA,NA,NA,-11,distractor
485_815_swingley_aslin_2002_14,103,485,swingley_aslin_2002,14,vaby,baby,dog,baby-dog,vaby,distractor,1,104,0.009523809523809525,NA,NA,0,NA,NA,0,NA,NA,NA,-11,distractor
486_816_swingley_aslin_2002_15,95,486,swingley_aslin_2002,15,gall,ball,apple,apple-ball,gall,distractor,51,51,0.5,-0.014150943396226412,1,1,NA,440,2,1700.0000000000002,1700.0000000000002,1700.0000000000002,-10,distractor
486_816_swingley_aslin_2002_15,97,486,swingley_aslin_2002,15,vaby,baby,dog,baby-dog,vaby,distractor,40,61,0.39603960396039606,-0.047169811320754707,1,1,NA,1290,2,1333.3333333333335,1333.3333333333335,1333.3333333333335,-10,distractor
486_816_swingley_aslin_2002_15,99,486,swingley_aslin_2002,15,tog,dog,baby,baby-dog,tog,distractor,54,47,0.5346534653465347,-0.04245283018867929,2,1,NA,540,3,900,1466.6666666666667,1466.6666666666667,-10,distractor
486_816_swingley_aslin_2002_15,101,486,swingley_aslin_2002,15,gall,ball,apple,apple-ball,gall,distractor,46,54,0.46,-0.014150943396226412,1,1,NA,640,2,1300,1300,1300,-10,distractor
486_816_swingley_aslin_2002_15,103,486,swingley_aslin_2002,15,vaby,baby,dog,baby-dog,vaby,distractor,44,56,0.44,-0.047169811320754707,2,1,NA,290,3,733.3333333333334,1066.6666666666667,1066.6666666666667,-10,distractor
486_816_swingley_aslin_2002_15,118,486,swingley_aslin_2002,15,opple,apple,ball,apple-ball,opple,distractor,50,50,0.5,-0.023584905660377353,2,1,NA,190,2,833.3333333333335,1233.3333333333335,1233.3333333333335,-10,distractor
