recording_name,trial_number,subject_id,dataset_name,age_months,target_word,yoked_target,yoked_distractor,yoked_pair,media_name,initial_look,samples_target,samples_distractor,prop_looking,prop_looking_diff,number_fixations,correct_shift,remain_on_target,latency_to_switch,total_aoi_switches,duration_of_look,first_look_dur,longest_look_by_trial,age_months_centred,data_split
0_0_casillas_tseltal_2015_14,1,0,casillas_tseltal_2015,14,wa,NA,NA,NA,tortilla,distractor,0,106,0,NA,NA,0,NA,NA,0,NA,NA,NA,-11,distractor
0_0_casillas_tseltal_2015_14,2,0,casillas_tseltal_2015,14,moch,NA,NA,NA,basket-tseltal,distractor,0,106,0,NA,NA,0,NA,NA,0,NA,NA,NA,-11,distractor
0_0_casillas_tseltal_2015_14,3,0,casillas_tseltal_2015,14,pelota,NA,NA,NA,ball,distractor,0,106,0,NA,NA,0,NA,NA,0,NA,NA,NA,-11,distractor
0_0_casillas_tseltal_2015_14,4,0,casillas_tseltal_2015,14,chojak',NA,NA,NA,purse-tseltal,distractor,0,106,0,NA,NA,0,NA,NA,0,NA,NA,NA,-11,distractor
0_0_casillas_tseltal_2015_14,5,0,casillas_tseltal_2015,14,baso,NA,NA,NA,cup,distractor,27,76,0.2621359223300971,NA,1,1,NA,490,2,1080,1080,1080,-11,distractor
0_0_casillas_tseltal_2015_14,7,0,casillas_tseltal_2015,14,balti,NA,NA,NA,bucket,distractor,15,86,0.1485148514851485,NA,1,0,NA,NA,1,600,600,600,-11,distractor
0_0_casillas_tseltal_2015_14,11,0,casillas_tseltal_2015,14,xawin,NA,NA,NA,cat,distractor,0,106,0,NA,NA,0,NA,NA,0,NA,NA,NA,-11,distractor
0_0_casillas_tseltal_2015_14,12,0,casillas_tseltal_2015,14,ja',NA,NA,NA,water,distractor,96,8,0.9230769230769231,NA,1,1,NA,215,1,3840,3840,3840,-11,distractor
0_0_casillas_tseltal_2015_14,15,0,casillas_tseltal_2015,14,na,NA,NA,NA,house,distractor,0,106,0,NA,NA,0,NA,NA,0,NA,NA,NA,-11,distractor
0_0_casillas_tseltal_2015_14,18,0,casillas_tseltal_2015,14,t'inel,NA,NA,NA,doorway,distractor,22,80,0.21568627450980393,NA,1,1,NA,615,2,880,880,880,-11,distractor
0_0_casillas_tseltal_2015_14,21,0,casillas_tseltal_2015,14,tz'i,NA,NA,NA,dog,distractor,0,106,0,NA,NA,0,NA,NA,0,NA,NA,NA,-11,distractor
0_0_casillas_tseltal_2015_14,22,0,casillas_tseltal_2015,14,tomut,NA,NA,NA,egg,distractor,0,106,0,NA,NA,0,NA,NA,0,NA,NA,NA,-11,distractor
0_0_casillas_tseltal_2015_14,27,0,casillas_tseltal_2015,14,mes,NA,NA,NA,broom,distractor,0,106,0,NA,NA,0,NA,NA,0,NA,NA,NA,-11,distractor
0_0_casillas_tseltal_2015_14,28,0,casillas_tseltal_2015,14,machit,NA,NA,NA,machete,distractor,0,106,0,NA,NA,0,NA,NA,0,NA,NA,NA,-11,distractor
0_0_casillas_tseltal_2015_14,29,0,casillas_tseltal_2015,14,si',NA,NA,NA,firewood,distractor,69,35,0.6634615384615384,NA,1,1,NA,940,1,2760,2760,2760,-11,distractor
1_1_casillas_tseltal_2015_22,2,1,casillas_tseltal_2015,22,moch,NA,NA,NA,basket-tseltal,distractor,35,66,0.3465346534653465,NA,1,1,NA,415,2,1400,1400,1400,-3,distractor
1_1_casillas_tseltal_2015_22,5,1,casillas_tseltal_2015,22,baso,NA,NA,NA,cup,distractor,70,32,0.6862745098039216,NA,1,1,NA,540,2,2800,2800,2800,-3,distractor
1_1_casillas_tseltal_2015_22,7,1,casillas_tseltal_2015,22,balti,NA,NA,NA,bucket,distractor,5,98,0.04854368932038835,NA,NA,0,NA,NA,0,NA,200,NA,-3,distractor
1_1_casillas_tseltal_2015_22,8,1,casillas_tseltal_2015,22,mut,NA,NA,NA,chicken,distractor,48,54,0.47058823529411764,NA,1,0,NA,NA,1,1920,1920,1920,-3,distractor
1_1_casillas_tseltal_2015_22,11,1,casillas_tseltal_2015,22,xawin,NA,NA,NA,cat,distractor,61,42,0.5922330097087378,NA,1,1,NA,1140,1,2440,2440,2440,-3,distractor
1_1_casillas_tseltal_2015_22,12,1,casillas_tseltal_2015,22,ja',NA,NA,NA,water,distractor,58,46,0.5576923076923077,NA,1,1,NA,1215,1,2320,2320,2320,-3,distractor
1_1_casillas_tseltal_2015_22,13,1,casillas_tseltal_2015,22,ixim,NA,NA,NA,corn,distractor,79,24,0.7669902912621359,NA,1,1,NA,690,1,3160,3160,3160,-3,distractor
1_1_casillas_tseltal_2015_22,15,1,casillas_tseltal_2015,22,na,NA,NA,NA,house,distractor,0,106,0,NA,NA,0,NA,NA,0,NA,NA,NA,-3,distractor
1_1_casillas_tseltal_2015_22,16,1,casillas_tseltal_2015,22,te,NA,NA,NA,tree,distractor,0,106,0,NA,NA,0,NA,NA,0,NA,NA,NA,-3,distractor
1_1_casillas_tseltal_2015_22,17,1,casillas_tseltal_2015,22,waybal,NA,NA,NA,bed,distractor,46,52,0.46938775510204084,NA,2,1,NA,465,4,920,1200,1200,-3,distractor
1_1_casillas_tseltal_2015_22,18,1,casillas_tseltal_2015,22,t'inel,NA,NA,NA,doorway,distractor,52,53,0.49523809523809526,NA,1,1,NA,1365,1,2080,2080,2080,-3,distractor
1_1_casillas_tseltal_2015_22,20,1,casillas_tseltal_2015,22,chenek',NA,NA,NA,bean,distractor,0,106,0,NA,NA,0,NA,NA,0,NA,NA,NA,-3,distractor
1_1_casillas_tseltal_2015_22,22,1,casillas_tseltal_2015,22,tomut,NA,NA,NA,egg,distractor,0,106,0,NA,NA,0,NA,NA,0,NA,NA,NA,-3,distractor
1_1_casillas_tseltal_2015_22,25,1,casillas_tseltal_2015,22,ich,NA,NA,NA,chile,distractor,63,42,0.6,NA,1,1,NA,1090,1,2520,2520,2520,-3,distractor
1_1_casillas_tseltal_2015_22,26,1,casillas_tseltal_2015,22,xila,NA,NA,NA,chair,distractor,53,50,0.5145631067961165,NA,1,1,NA,1340,1,2120,2120,2120,-3,distractor
1_1_casillas_tseltal_2015_22,27,1,casillas_tseltal_2015,22,mes,NA,NA,NA,broom,distractor,40,64,0.38461538461538464,NA,1,0,NA,NA,1,1600,1600,1600,-3,distractor
1_1_casillas_tseltal_2015_22,28,1,casillas_tseltal_2015,22,machit,NA,NA,NA,machete,distractor,63,40,0.6116504854368932,NA,1,1,NA,1090,1,2520,2520,2520,-3,distractor
1_1_casillas_tseltal_2015_22,29,1,casillas_tseltal_2015,22,si',NA,NA,NA,firewood,distractor,26,77,0.2524271844660194,NA,1,0,NA,NA,1,1040,1040,1040,-3,distractor
1_1_casillas_tseltal_2015_22,30,1,casillas_tseltal_2015,22,bojch,NA,NA,NA,bowl-tseltal,distractor,77,26,0.7475728155339806,NA,1,1,NA,740,1,3080,3080,3080,-3,distractor
2_2_casillas_tseltal_2015_45,2,2,casillas_tseltal_2015,45,moch,NA,NA,NA,basket-tseltal,distractor,59,42,0.5841584158415841,NA,1,1,NA,690,2,2360,2360,2360,20,distractor
2_2_casillas_tseltal_2015_45,4,2,casillas_tseltal_2015,45,chojak',NA,NA,NA,purse-tseltal,distractor,47,47,0.5,NA,1,1,NA,565,2,1880,1880,1880,20,distractor
2_2_casillas_tseltal_2015_45,5,2,casillas_tseltal_2015,45,baso,NA,NA,NA,cup,distractor,70,26,0.7291666666666666,NA,2,1,NA,140,2,1400,2480,2480,20,distractor
2_2_casillas_tseltal_2015_45,7,2,casillas_tseltal_2015,45,balti,NA,NA,NA,bucket,distractor,51,48,0.5151515151515151,NA,1,1,NA,290,2,2040,2040,2040,20,distractor
2_2_casillas_tseltal_2015_45,9,2,casillas_tseltal_2015,45,k'ajk',NA,NA,NA,fire,distractor,68,34,0.6666666666666666,NA,1,1,NA,165,1,2720,2720,2720,20,distractor
2_2_casillas_tseltal_2015_45,13,2,casillas_tseltal_2015,45,ixim,NA,NA,NA,corn,distractor,59,39,0.6020408163265306,NA,2,1,NA,415,3,1180,1800,1800,20,distractor
2_2_casillas_tseltal_2015_45,16,2,casillas_tseltal_2015,45,te,NA,NA,NA,tree,distractor,61,31,0.6630434782608695,NA,1,1,NA,290,2,2440,2440,2440,20,distractor
2_2_casillas_tseltal_2015_45,19,2,casillas_tseltal_2015,45,lo'bal,NA,NA,NA,banana,distractor,63,10,0.863013698630137,NA,1,1,NA,765,1,2520,2520,2520,20,distractor
2_2_casillas_tseltal_2015_45,22,2,casillas_tseltal_2015,45,tomut,NA,NA,NA,egg,distractor,37,53,0.4111111111111111,NA,2,1,NA,65,2,740,1080,1080,20,distractor
2_2_casillas_tseltal_2015_45,24,2,casillas_tseltal_2015,45,tzek',NA,NA,NA,skirt-tseltal,distractor,64,36,0.64,NA,1,1,NA,490,2,2560,2560,2560,20,distractor
2_2_casillas_tseltal_2015_45,25,2,casillas_tseltal_2015,45,ich,NA,NA,NA,chile,distractor,86,14,0.86,NA,1,1,NA,340,1,3440,3440,3440,20,distractor
2_2_casillas_tseltal_2015_45,26,2,casillas_tseltal_2015,45,xila,NA,NA,NA,chair,distractor,69,32,0.6831683168316832,NA,1,1,NA,290,2,2760,2760,2760,20,distractor
2_2_casillas_tseltal_2015_45,29,2,casillas_tseltal_2015,45,si',NA,NA,NA,firewood,distractor,104,0,1,NA,1,1,NA,65,0,4160,4160,4160,20,distractor
2_2_casillas_tseltal_2015_45,30,2,casillas_tseltal_2015,45,bojch,NA,NA,NA,bowl-tseltal,distractor,74,30,0.7115384615384616,NA,1,1,NA,215,1,2960,2960,2960,20,distractor
3_3_casillas_tseltal_2015_22,1,3,casillas_tseltal_2015,22,wa,NA,NA,NA,tortilla,distractor,11,84,0.11578947368421053,NA,1,0,NA,NA,2,440,440,440,-3,distractor
3_3_casillas_tseltal_2015_22,4,3,casillas_tseltal_2015,22,chojak',NA,NA,NA,purse-tseltal,distractor,0,106,0,NA,NA,0,NA,NA,0,NA,NA,NA,-3,distractor
3_3_casillas_tseltal_2015_22,5,3,casillas_tseltal_2015,22,baso,NA,NA,NA,cup,distractor,88,16,0.8461538461538461,NA,1,1,NA,465,1,3520,3520,3520,-3,distractor
3_3_casillas_tseltal_2015_22,7,3,casillas_tseltal_2015,22,balti,NA,NA,NA,bucket,distractor,50,34,0.5952380952380952,NA,1,1,NA,890,1,2000,2000,2000,-3,distractor
3_3_casillas_tseltal_2015_22,11,3,casillas_tseltal_2015,22,xawin,NA,NA,NA,cat,distractor,34,69,0.3300970873786408,NA,1,0,NA,NA,1,1360,1360,1360,-3,distractor
3_3_casillas_tseltal_2015_22,13,3,casillas_tseltal_2015,22,ixim,NA,NA,NA,corn,distractor,61,43,0.5865384615384616,NA,1,1,NA,1140,1,2440,2440,2440,-3,distractor
3_3_casillas_tseltal_2015_22,15,3,casillas_tseltal_2015,22,na,NA,NA,NA,house,distractor,0,106,0,NA,NA,0,NA,NA,0,NA,NA,NA,-3,distractor
3_3_casillas_tseltal_2015_22,16,3,casillas_tseltal_2015,22,te,NA,NA,NA,tree,distractor,0,106,0,NA,NA,0,NA,NA,0,NA,NA,NA,-3,distractor
3_3_casillas_tseltal_2015_22,17,3,casillas_tseltal_2015,22,waybal,NA,NA,NA,bed,distractor,63,39,0.6176470588235294,NA,1,1,NA,490,2,2520,2520,2520,-3,distractor
3_3_casillas_tseltal_2015_22,19,3,casillas_tseltal_2015,22,lo'bal,NA,NA,NA,banana,distractor,22,80,0.21568627450980393,NA,1,0,NA,NA,2,880,880,880,-3,distractor
3_3_casillas_tseltal_2015_22,20,3,casillas_tseltal_2015,22,chenek',NA,NA,NA,bean,distractor,87,18,0.8285714285714286,NA,1,1,NA,490,1,3480,3480,3480,-3,distractor
3_3_casillas_tseltal_2015_22,21,3,casillas_tseltal_2015,22,tz'i,NA,NA,NA,dog,distractor,39,66,0.37142857142857144,NA,1,0,NA,NA,1,1560,1560,1560,-3,distractor
3_3_casillas_tseltal_2015_22,23,3,casillas_tseltal_2015,22,p'in,NA,NA,NA,pot-tseltal,distractor,36,66,0.35294117647058826,NA,1,0,NA,NA,1,1440,1440,1440,-3,distractor
3_3_casillas_tseltal_2015_22,24,3,casillas_tseltal_2015,22,tzek',NA,NA,NA,skirt-tseltal,distractor,4,99,0.038834951456310676,NA,NA,0,NA,NA,0,NA,NA,NA,-3,distractor
3_3_casillas_tseltal_2015_22,27,3,casillas_tseltal_2015,22,mes,NA,NA,NA,broom,distractor,88,2,0.9777777777777777,NA,1,1,NA,465,0,3520,3520,3520,-3,distractor
3_3_casillas_tseltal_2015_22,28,3,casillas_tseltal_2015,22,machit,NA,NA,NA,machete,distractor,15,90,0.14285714285714285,NA,1,0,NA,NA,1,600,600,600,-3,distractor
4_4_casillas_tseltal_2015_45,1,4,casillas_tseltal_2015,45,wa,NA,NA,NA,tortilla,distractor,0,106,0,NA,NA,0,NA,NA,0,NA,NA,NA,20,distractor
4_4_casillas_tseltal_2015_45,2,4,casillas_tseltal_2015,45,moch,NA,NA,NA,basket-tseltal,distractor,84,21,0.8,NA,1,1,NA,565,1,3360,3360,3360,20,distractor
4_4_casillas_tseltal_2015_45,4,4,casillas_tseltal_2015,45,chojak',NA,NA,NA,purse-tseltal,distractor,29,71,0.29,NA,1,1,NA,365,2,1160,1160,1160,20,distractor
4_4_casillas_tseltal_2015_45,5,4,casillas_tseltal_2015,45,baso,NA,NA,NA,cup,distractor,98,6,0.9423076923076923,NA,1,1,NA,215,0,3920,3920,3920,20,distractor
4_4_casillas_tseltal_2015_45,7,4,casillas_tseltal_2015,45,balti,NA,NA,NA,bucket,distractor,56,47,0.5436893203883495,NA,1,1,NA,340,2,2240,2240,2240,20,distractor
4_4_casillas_tseltal_2015_45,8,4,casillas_tseltal_2015,45,mut,NA,NA,NA,chicken,distractor,53,38,0.5824175824175825,NA,2,1,NA,540,3,1060,640,1480,20,distractor
4_4_casillas_tseltal_2015_45,9,4,casillas_tseltal_2015,45,k'ajk',NA,NA,NA,fire,distractor,67,29,0.6979166666666666,NA,1,1,NA,290,2,2680,2680,2680,20,distractor
4_4_casillas_tseltal_2015_45,10,4,casillas_tseltal_2015,45,mexa,NA,NA,NA,table,distractor,101,3,0.9711538461538461,NA,1,1,NA,140,0,4040,4040,4040,20,distractor
4_4_casillas_tseltal_2015_45,11,4,casillas_tseltal_2015,45,xawin,NA,NA,NA,cat,distractor,44,58,0.43137254901960786,NA,1,1,NA,265,2,1760,1760,1760,20,distractor
4_4_casillas_tseltal_2015_45,16,4,casillas_tseltal_2015,45,te,NA,NA,NA,tree,distractor,65,24,0.7303370786516854,NA,1,1,NA,665,1,2600,2600,2600,20,distractor
4_4_casillas_tseltal_2015_45,17,4,casillas_tseltal_2015,45,waybal,NA,NA,NA,bed,distractor,85,19,0.8173076923076923,NA,1,1,NA,540,1,3400,3400,3400,20,distractor
4_4_casillas_tseltal_2015_45,18,4,casillas_tseltal_2015,45,t'inel,NA,NA,NA,doorway,distractor,11,90,0.10891089108910891,NA,1,1,NA,865,2,440,440,440,20,distractor
4_4_casillas_tseltal_2015_45,19,4,casillas_tseltal_2015,45,lo'bal,NA,NA,NA,banana,distractor,76,24,0.76,NA,2,1,NA,490,1,1520,2000,2000,20,distractor
4_4_casillas_tseltal_2015_45,20,4,casillas_tseltal_2015,45,chenek',NA,NA,NA,bean,distractor,51,50,0.504950495049505,NA,1,1,NA,415,2,2040,2040,2040,20,distractor
4_4_casillas_tseltal_2015_45,22,4,casillas_tseltal_2015,45,tomut,NA,NA,NA,egg,distractor,72,31,0.6990291262135923,NA,1,1,NA,165,1,2880,2880,2880,20,distractor
4_4_casillas_tseltal_2015_45,23,4,casillas_tseltal_2015,45,p'in,NA,NA,NA,pot-tseltal,distractor,68,30,0.6938775510204082,NA,2,1,NA,415,3,1360,1920,1920,20,distractor
4_4_casillas_tseltal_2015_45,24,4,casillas_tseltal_2015,45,tzek',NA,NA,NA,skirt-tseltal,distractor,64,37,0.6336633663366337,NA,1,1,NA,665,2,2560,2560,2560,20,distractor
4_4_casillas_tseltal_2015_45,27,4,casillas_tseltal_2015,45,mes,NA,NA,NA,broom,distractor,72,31,0.6990291262135923,NA,1,1,NA,365,2,2880,2880,2880,20,distractor
4_4_casillas_tseltal_2015_45,30,4,casillas_tseltal_2015,45,bojch,NA,NA,NA,bowl-tseltal,distractor,78,22,0.78,NA,1,1,NA,615,1,3120,3120,3120,20,distractor
5_5_casillas_tseltal_2015_27,4,5,casillas_tseltal_2015,27,chojak',NA,NA,NA,purse-tseltal,distractor,21,81,0.20588235294117646,NA,1,1,NA,815,2,840,840,840,2,distractor
5_5_casillas_tseltal_2015_27,5,5,casillas_tseltal_2015,27,baso,NA,NA,NA,cup,distractor,66,38,0.6346153846153846,NA,1,1,NA,490,2,2640,2640,2640,2,distractor
5_5_casillas_tseltal_2015_27,7,5,casillas_tseltal_2015,27,balti,NA,NA,NA,bucket,distractor,89,15,0.8557692307692307,NA,2,1,NA,15,2,1780,1160,2400,2,distractor
5_5_casillas_tseltal_2015_27,8,5,casillas_tseltal_2015,27,mut,NA,NA,NA,chicken,distractor,93,11,0.8942307692307693,NA,1,1,NA,340,1,3720,3720,3720,2,distractor
5_5_casillas_tseltal_2015_27,9,5,casillas_tseltal_2015,27,k'ajk',NA,NA,NA,fire,distractor,66,29,0.6947368421052632,NA,2,1,NA,340,3,1320,1800,1800,2,distractor
5_5_casillas_tseltal_2015_27,10,5,casillas_tseltal_2015,27,mexa,NA,NA,NA,table,distractor,61,40,0.6039603960396039,NA,1,1,NA,415,2,2440,2440,2440,2,distractor
5_5_casillas_tseltal_2015_27,16,5,casillas_tseltal_2015,27,te,NA,NA,NA,tree,distractor,0,106,0,NA,NA,0,NA,NA,0,NA,NA,NA,2,distractor
5_5_casillas_tseltal_2015_27,18,5,casillas_tseltal_2015,27,t'inel,NA,NA,NA,doorway,distractor,26,72,0.2653061224489796,NA,1,1,NA,365,2,1040,1040,1040,2,distractor
5_5_casillas_tseltal_2015_27,19,5,casillas_tseltal_2015,27,lo'bal,NA,NA,NA,banana,distractor,98,6,0.9423076923076923,NA,1,1,NA,215,0,3920,3920,3920,2,distractor
5_5_casillas_tseltal_2015_27,20,5,casillas_tseltal_2015,27,chenek',NA,NA,NA,bean,distractor,39,66,0.37142857142857144,NA,1,0,NA,NA,1,1560,1560,1560,2,distractor
5_5_casillas_tseltal_2015_27,21,5,casillas_tseltal_2015,27,tz'i,NA,NA,NA,dog,distractor,82,19,0.8118811881188119,NA,1,1,NA,215,1,3280,3280,3280,2,distractor
5_5_casillas_tseltal_2015_27,22,5,casillas_tseltal_2015,27,tomut,NA,NA,NA,egg,distractor,40,63,0.3883495145631068,NA,1,1,NA,740,2,1600,1600,1600,2,distractor
5_5_casillas_tseltal_2015_27,23,5,casillas_tseltal_2015,27,p'in,NA,NA,NA,pot-tseltal,distractor,20,82,0.19607843137254902,NA,1,0,NA,NA,1,640,640,640,2,distractor
5_5_casillas_tseltal_2015_27,26,5,casillas_tseltal_2015,27,xila,NA,NA,NA,chair,distractor,34,62,0.3541666666666667,NA,1,0,NA,NA,1,1360,1360,1360,2,distractor
5_5_casillas_tseltal_2015_27,28,5,casillas_tseltal_2015,27,machit,NA,NA,NA,machete,distractor,12,90,0.11764705882352941,NA,1,0,NA,NA,2,400,400,400,2,distractor
5_5_casillas_tseltal_2015_27,30,5,casillas_tseltal_2015,27,bojch,NA,NA,NA,bowl-tseltal,distractor,20,74,0.2127659574468085,NA,1,1,NA,565,2,800,800,800,2,distractor
6_6_casillas_tseltal_2015_39,4,6,casillas_tseltal_2015,39,chojak',NA,NA,NA,purse-tseltal,distractor,45,58,0.4368932038834951,NA,1,1,NA,615,2,1800,1800,1800,14,distractor
6_6_casillas_tseltal_2015_39,5,6,casillas_tseltal_2015,39,baso,NA,NA,NA,cup,distractor,67,35,0.6568627450980392,NA,1,1,NA,540,2,2680,2680,2680,14,distractor
6_6_casillas_tseltal_2015_39,6,6,casillas_tseltal_2015,39,nichim,NA,NA,NA,flower,distractor,93,11,0.8942307692307693,NA,1,1,NA,340,1,3720,3720,3720,14,distractor
6_6_casillas_tseltal_2015_39,10,6,casillas_tseltal_2015,39,mexa,NA,NA,NA,table,distractor,82,22,0.7884615384615384,NA,1,1,NA,615,1,3280,3280,3280,14,distractor
6_6_casillas_tseltal_2015_39,11,6,casillas_tseltal_2015,39,xawin,NA,NA,NA,cat,distractor,101,3,0.9711538461538461,NA,1,1,NA,140,0,4040,4040,4040,14,distractor
6_6_casillas_tseltal_2015_39,14,6,casillas_tseltal_2015,39,karo,NA,NA,NA,car,distractor,87,18,0.8285714285714286,NA,1,1,NA,490,1,3480,3480,3480,14,distractor
6_6_casillas_tseltal_2015_39,16,6,casillas_tseltal_2015,39,te,NA,NA,NA,tree,distractor,74,29,0.7184466019417476,NA,1,1,NA,815,1,2960,2960,2960,14,distractor
6_6_casillas_tseltal_2015_39,17,6,casillas_tseltal_2015,39,waybal,NA,NA,NA,bed,distractor,77,29,0.7264150943396226,NA,1,1,NA,740,1,3080,3080,3080,14,distractor
6_6_casillas_tseltal_2015_39,18,6,casillas_tseltal_2015,39,t'inel,NA,NA,NA,doorway,distractor,7,96,0.06796116504854369,NA,NA,0,NA,NA,0,NA,280,NA,14,distractor
6_6_casillas_tseltal_2015_39,20,6,casillas_tseltal_2015,39,chenek',NA,NA,NA,bean,distractor,69,35,0.6634615384615384,NA,1,1,NA,940,1,2760,2760,2760,14,distractor
6_6_casillas_tseltal_2015_39,22,6,casillas_tseltal_2015,39,tomut,NA,NA,NA,egg,distractor,79,24,0.7669902912621359,NA,1,1,NA,690,1,3160,3160,3160,14,distractor
6_6_casillas_tseltal_2015_39,23,6,casillas_tseltal_2015,39,p'in,NA,NA,NA,pot-tseltal,distractor,98,6,0.9423076923076923,NA,1,1,NA,215,0,3920,3920,3920,14,distractor
6_6_casillas_tseltal_2015_39,24,6,casillas_tseltal_2015,39,tzek',NA,NA,NA,skirt-tseltal,distractor,79,26,0.7523809523809524,NA,1,1,NA,690,1,3160,3160,3160,14,distractor
6_6_casillas_tseltal_2015_39,25,6,casillas_tseltal_2015,39,ich,NA,NA,NA,chile,distractor,101,3,0.9711538461538461,NA,1,1,NA,140,0,4040,4040,4040,14,distractor
6_6_casillas_tseltal_2015_39,28,6,casillas_tseltal_2015,39,machit,NA,NA,NA,machete,distractor,24,80,0.23076923076923078,NA,1,0,NA,NA,1,960,960,960,14,distractor
6_6_casillas_tseltal_2015_39,29,6,casillas_tseltal_2015,39,si',NA,NA,NA,firewood,distractor,72,32,0.6923076923076923,NA,1,1,NA,865,1,2880,2880,2880,14,distractor
6_6_casillas_tseltal_2015_39,30,6,casillas_tseltal_2015,39,bojch,NA,NA,NA,bowl-tseltal,distractor,71,34,0.6761904761904762,NA,1,1,NA,890,1,2840,2840,2840,14,distractor
7_7_casillas_tseltal_2015_25,1,7,casillas_tseltal_2015,25,wa,NA,NA,NA,tortilla,distractor,0,87,0,NA,NA,0,NA,NA,0,NA,NA,NA,0,distractor
7_7_casillas_tseltal_2015_25,2,7,casillas_tseltal_2015,25,moch,NA,NA,NA,basket-tseltal,distractor,0,106,0,NA,NA,0,NA,NA,0,NA,NA,NA,0,distractor
7_7_casillas_tseltal_2015_25,3,7,casillas_tseltal_2015,25,pelota,NA,NA,NA,ball,distractor,0,104,0,NA,NA,0,NA,NA,0,NA,NA,NA,0,distractor
7_7_casillas_tseltal_2015_25,4,7,casillas_tseltal_2015,25,chojak',NA,NA,NA,purse-tseltal,distractor,0,106,0,NA,NA,0,NA,NA,0,NA,NA,NA,0,distractor
7_7_casillas_tseltal_2015_25,7,7,casillas_tseltal_2015,25,balti,NA,NA,NA,bucket,distractor,0,106,0,NA,NA,0,NA,NA,0,NA,NA,NA,0,distractor
7_7_casillas_tseltal_2015_25,8,7,casillas_tseltal_2015,25,mut,NA,NA,NA,chicken,distractor,56,48,0.5384615384615384,NA,1,1,NA,1265,1,2240,2240,2240,0,distractor
7_7_casillas_tseltal_2015_25,9,7,casillas_tseltal_2015,25,k'ajk',NA,NA,NA,fire,distractor,0,106,0,NA,NA,0,NA,NA,0,NA,NA,NA,0,distractor
7_7_casillas_tseltal_2015_25,15,7,casillas_tseltal_2015,25,na,NA,NA,NA,house,distractor,0,106,0,NA,NA,0,NA,NA,0,NA,NA,NA,0,distractor
7_7_casillas_tseltal_2015_25,16,7,casillas_tseltal_2015,25,te,NA,NA,NA,tree,distractor,0,55,0,NA,NA,0,NA,NA,0,NA,NA,NA,0,distractor
7_7_casillas_tseltal_2015_25,20,7,casillas_tseltal_2015,25,chenek',NA,NA,NA,bean,distractor,0,106,0,NA,NA,0,NA,NA,0,NA,NA,NA,0,distractor
7_7_casillas_tseltal_2015_25,22,7,casillas_tseltal_2015,25,tomut,NA,NA,NA,egg,distractor,32,72,0.3076923076923077,NA,1,0,NA,NA,1,1280,1280,1280,0,distractor
7_7_casillas_tseltal_2015_25,27,7,casillas_tseltal_2015,25,mes,NA,NA,NA,broom,distractor,0,106,0,NA,NA,0,NA,NA,0,NA,NA,NA,0,distractor
8_8_casillas_tseltal_2015_14,1,8,casillas_tseltal_2015,14,wa,NA,NA,NA,tortilla,distractor,70,32,0.6862745098039216,NA,1,1,NA,815,1,2800,2800,2800,-11,distractor
8_8_casillas_tseltal_2015_14,8,8,casillas_tseltal_2015,14,mut,NA,NA,NA,chicken,distractor,27,77,0.25961538461538464,NA,1,1,NA,1290,2,1080,1080,1080,-11,distractor
8_8_casillas_tseltal_2015_14,10,8,casillas_tseltal_2015,14,mexa,NA,NA,NA,table,distractor,0,106,0,NA,NA,0,NA,NA,0,NA,NA,NA,-11,distractor
8_8_casillas_tseltal_2015_14,12,8,casillas_tseltal_2015,14,ja',NA,NA,NA,water,distractor,57,47,0.5480769230769231,NA,1,1,NA,665,2,2280,2280,2280,-11,distractor
8_8_casillas_tseltal_2015_14,14,8,casillas_tseltal_2015,14,karo,NA,NA,NA,car,distractor,0,106,0,NA,NA,0,NA,NA,0,NA,NA,NA,-11,distractor
8_8_casillas_tseltal_2015_14,15,8,casillas_tseltal_2015,14,na,NA,NA,NA,house,distractor,16,87,0.1553398058252427,NA,1,1,NA,1065,2,640,640,640,-11,distractor
8_8_casillas_tseltal_2015_14,17,8,casillas_tseltal_2015,14,waybal,NA,NA,NA,bed,distractor,26,72,0.2653061224489796,NA,1,0,NA,NA,1,1040,1040,1040,-11,distractor
8_8_casillas_tseltal_2015_14,18,8,casillas_tseltal_2015,14,t'inel,NA,NA,NA,doorway,distractor,0,106,0,NA,NA,0,NA,NA,0,NA,NA,NA,-11,distractor
8_8_casillas_tseltal_2015_14,22,8,casillas_tseltal_2015,14,tomut,NA,NA,NA,egg,distractor,24,78,0.23529411764705882,NA,1,1,NA,1015,2,960,960,960,-11,distractor
8_8_casillas_tseltal_2015_14,24,8,casillas_tseltal_2015,14,tzek',NA,NA,NA,skirt-tseltal,distractor,0,106,0,NA,NA,0,NA,NA,0,NA,NA,NA,-11,distractor
8_8_casillas_tseltal_2015_14,25,8,casillas_tseltal_2015,14,ich,NA,NA,NA,chile,distractor,47,52,0.47474747474747475,NA,1,1,NA,1090,2,1800,1800,1800,-11,distractor
8_8_casillas_tseltal_2015_14,26,8,casillas_tseltal_2015,14,xila,NA,NA,NA,chair,distractor,0,106,0,NA,NA,0,NA,NA,0,NA,NA,NA,-11,distractor
8_8_casillas_tseltal_2015_14,28,8,casillas_tseltal_2015,14,machit,NA,NA,NA,machete,distractor,0,106,0,NA,NA,0,NA,NA,0,NA,NA,NA,-11,distractor
8_8_casillas_tseltal_2015_14,29,8,casillas_tseltal_2015,14,si',NA,NA,NA,firewood,distractor,12,86,0.12244897959183673,NA,1,0,NA,NA,1,480,480,480,-11,distractor
9_9_casillas_tseltal_2015_42,4,9,casillas_tseltal_2015,42,chojak',NA,NA,NA,purse-tseltal,distractor,29,72,0.2871287128712871,NA,1,1,NA,415,2,1160,1160,1160,17,distractor
9_9_casillas_tseltal_2015_42,5,9,casillas_tseltal_2015,42,baso,NA,NA,NA,cup,distractor,56,44,0.56,NA,1,1,NA,615,2,2160,2160,2160,17,distractor
9_9_casillas_tseltal_2015_42,7,9,casillas_tseltal_2015,42,balti,NA,NA,NA,bucket,distractor,43,59,0.4215686274509804,NA,1,1,NA,615,2,1720,1720,1720,17,distractor
9_9_casillas_tseltal_2015_42,9,9,casillas_tseltal_2015,42,k'ajk',NA,NA,NA,fire,distractor,68,30,0.6938775510204082,NA,3,1,NA,165,2,906.6666666666666,400,1720,17,distractor
9_9_casillas_tseltal_2015_42,10,9,casillas_tseltal_2015,42,mexa,NA,NA,NA,table,distractor,72,25,0.7422680412371134,NA,2,1,NA,365,3,1440,320,2560,17,distractor
9_9_casillas_tseltal_2015_42,12,9,casillas_tseltal_2015,42,ja',NA,NA,NA,water,distractor,56,49,0.5333333333333333,NA,1,1,NA,565,2,2240,2240,2240,17,distractor
9_9_casillas_tseltal_2015_42,14,9,casillas_tseltal_2015,42,karo,NA,NA,NA,car,distractor,85,19,0.8173076923076923,NA,1,1,NA,540,1,3400,3400,3400,17,distractor
9_9_casillas_tseltal_2015_42,15,9,casillas_tseltal_2015,42,na,NA,NA,NA,house,distractor,25,71,0.2604166666666667,NA,1,1,NA,865,2,1000,1000,1000,17,distractor
9_9_casillas_tseltal_2015_42,18,9,casillas_tseltal_2015,42,t'inel,NA,NA,NA,doorway,distractor,0,106,0,NA,NA,0,NA,NA,0,NA,NA,NA,17,distractor
9_9_casillas_tseltal_2015_42,20,9,casillas_tseltal_2015,42,chenek',NA,NA,NA,bean,distractor,69,34,0.6699029126213593,NA,1,1,NA,365,2,2760,2760,2760,17,distractor
9_9_casillas_tseltal_2015_42,23,9,casillas_tseltal_2015,42,p'in,NA,NA,NA,pot-tseltal,distractor,27,76,0.2621359223300971,NA,1,1,NA,465,2,1080,1080,1080,17,distractor
9_9_casillas_tseltal_2015_42,24,9,casillas_tseltal_2015,42,tzek',NA,NA,NA,skirt-tseltal,distractor,71,34,0.6761904761904762,NA,1,1,NA,890,1,2840,2840,2840,17,distractor
9_9_casillas_tseltal_2015_42,28,9,casillas_tseltal_2015,42,machit,NA,NA,NA,machete,distractor,92,13,0.8761904761904762,NA,1,1,NA,365,1,3680,3680,3680,17,distractor
10_10_casillas_tseltal_2015_46,4,10,casillas_tseltal_2015,46,chojak',NA,NA,NA,purse-tseltal,distractor,93,10,0.9029126213592233,NA,1,1,NA,340,1,3720,3720,3720,21,distractor
10_10_casillas_tseltal_2015_46,5,10,casillas_tseltal_2015,46,baso,NA,NA,NA,cup,distractor,103,0,1,NA,1,1,NA,90,0,4120,4120,4120,21,distractor
10_10_casillas_tseltal_2015_46,7,10,casillas_tseltal_2015,46,balti,NA,NA,NA,bucket,distractor,84,21,0.8,NA,1,1,NA,565,1,3360,3360,3360,21,distractor
10_10_casillas_tseltal_2015_46,8,10,casillas_tseltal_2015,46,mut,NA,NA,NA,chicken,distractor,62,38,0.62,NA,1,1,NA,1065,1,2480,2480,2480,21,distractor
10_10_casillas_tseltal_2015_46,9,10,casillas_tseltal_2015,46,k'ajk',NA,NA,NA,fire,distractor,93,10,0.9029126213592233,NA,1,1,NA,340,1,3720,3720,3720,21,distractor
10_10_casillas_tseltal_2015_46,10,10,casillas_tseltal_2015,46,mexa,NA,NA,NA,table,distractor,95,10,0.9047619047619048,NA,1,1,NA,290,1,3800,3800,3800,21,distractor
10_10_casillas_tseltal_2015_46,11,10,casillas_tseltal_2015,46,xawin,NA,NA,NA,cat,distractor,85,19,0.8173076923076923,NA,1,1,NA,540,1,3400,3400,3400,21,distractor
10_10_casillas_tseltal_2015_46,12,10,casillas_tseltal_2015,46,ja',NA,NA,NA,water,distractor,61,42,0.5922330097087378,NA,1,1,NA,1140,1,2440,2440,2440,21,distractor
10_10_casillas_tseltal_2015_46,15,10,casillas_tseltal_2015,46,na,NA,NA,NA,house,distractor,79,26,0.7523809523809524,NA,1,1,NA,690,1,3160,3160,3160,21,distractor
10_10_casillas_tseltal_2015_46,16,10,casillas_tseltal_2015,46,te,NA,NA,NA,tree,distractor,85,18,0.8252427184466019,NA,1,1,NA,540,1,3400,3400,3400,21,distractor
10_10_casillas_tseltal_2015_46,20,10,casillas_tseltal_2015,46,chenek',NA,NA,NA,bean,distractor,14,62,0.18421052631578946,NA,1,1,NA,1415,2,560,560,560,21,distractor
10_10_casillas_tseltal_2015_46,21,10,casillas_tseltal_2015,46,tz'i,NA,NA,NA,dog,distractor,82,21,0.7961165048543689,NA,1,1,NA,615,1,3280,3280,3280,21,distractor
10_10_casillas_tseltal_2015_46,22,10,casillas_tseltal_2015,46,tomut,NA,NA,NA,egg,distractor,47,56,0.4563106796116505,NA,1,0,NA,NA,1,1880,1880,1880,21,distractor
10_10_casillas_tseltal_2015_46,23,10,casillas_tseltal_2015,46,p'in,NA,NA,NA,pot-tseltal,distractor,87,18,0.8285714285714286,NA,1,1,NA,490,1,3480,3480,3480,21,distractor
10_10_casillas_tseltal_2015_46,25,10,casillas_tseltal_2015,46,ich,NA,NA,NA,chile,distractor,84,19,0.8155339805825242,NA,1,1,NA,565,1,3360,3360,3360,21,distractor
10_10_casillas_tseltal_2015_46,27,10,casillas_tseltal_2015,46,mes,NA,NA,NA,broom,distractor,89,11,0.89,NA,1,1,NA,365,1,3360,3360,3360,21,distractor
10_10_casillas_tseltal_2015_46,30,10,casillas_tseltal_2015,46,bojch,NA,NA,NA,bowl-tseltal,distractor,68,37,0.6476190476190476,NA,1,1,NA,965,1,2720,2720,2720,21,distractor
12_12_casillas_tseltal_2015_16,13,12,casillas_tseltal_2015,16,wa,NA,NA,NA,tortilla,distractor,31,69,0.31,NA,1,1,NA,1090,2,1240,1240,1240,-9,distractor
12_12_casillas_tseltal_2015_16,15,12,casillas_tseltal_2015,16,pelota,NA,NA,NA,ball,distractor,5,99,0.04807692307692308,NA,NA,0,NA,NA,0,NA,200,NA,-9,distractor
12_12_casillas_tseltal_2015_16,19,12,casillas_tseltal_2015,16,balti,NA,NA,NA,bucket,distractor,0,106,0,NA,NA,0,NA,NA,0,NA,NA,NA,-9,distractor
12_12_casillas_tseltal_2015_16,23,12,casillas_tseltal_2015,16,xawin,NA,NA,NA,cat,distractor,53,51,0.5096153846153846,NA,1,1,NA,1340,1,2120,2120,2120,-9,distractor
12_12_casillas_tseltal_2015_16,27,12,casillas_tseltal_2015,16,bojch,NA,NA,NA,bowl-tseltal,distractor,85,19,0.8173076923076923,NA,1,1,NA,540,1,3400,3400,3400,-9,distractor
12_12_casillas_tseltal_2015_16,28,12,casillas_tseltal_2015,16,na,NA,NA,NA,house,distractor,52,42,0.5531914893617021,NA,1,1,NA,90,1,1800,1800,1800,-9,distractor
12_12_casillas_tseltal_2015_16,29,12,casillas_tseltal_2015,16,te,NA,NA,NA,tree,distractor,56,0,1,NA,2,1,NA,90,0,1120,960,1280,-9,distractor
12_12_casillas_tseltal_2015_16,33,12,casillas_tseltal_2015,16,tz'i,NA,NA,NA,dog,distractor,0,106,0,NA,NA,0,NA,NA,0,NA,NA,NA,-9,distractor
12_12_casillas_tseltal_2015_16,35,12,casillas_tseltal_2015,16,p'in,NA,NA,NA,pot-tseltal,distractor,0,106,0,NA,NA,0,NA,NA,0,NA,NA,NA,-9,distractor
12_12_casillas_tseltal_2015_16,39,12,casillas_tseltal_2015,16,machit,NA,NA,NA,machete,distractor,0,106,0,NA,NA,0,NA,NA,0,NA,NA,NA,-9,distractor
13_13_casillas_tseltal_2015_48,10,13,casillas_tseltal_2015,48,baso,NA,NA,NA,cup,distractor,61,41,0.5980392156862745,NA,1,1,NA,940,1,2440,2440,2440,23,distractor
13_13_casillas_tseltal_2015_48,17,13,casillas_tseltal_2015,48,ja',NA,NA,NA,water,distractor,59,45,0.5673076923076923,NA,1,1,NA,15,1,2360,2360,2360,23,distractor
13_13_casillas_tseltal_2015_48,27,13,casillas_tseltal_2015,48,tomut,NA,NA,NA,egg,distractor,88,15,0.8543689320388349,NA,1,1,NA,365,1,3520,3520,3520,23,distractor
13_13_casillas_tseltal_2015_48,29,13,casillas_tseltal_2015,48,tzek',NA,NA,NA,skirt-tseltal,distractor,0,106,0,NA,NA,0,NA,NA,0,NA,NA,NA,23,distractor
13_13_casillas_tseltal_2015_48,30,13,casillas_tseltal_2015,48,ich,NA,NA,NA,chile,distractor,0,103,0,NA,NA,0,NA,NA,0,NA,NA,NA,23,distractor
13_13_casillas_tseltal_2015_48,32,13,casillas_tseltal_2015,48,machit,NA,NA,NA,machete,distractor,69,35,0.6634615384615384,NA,1,1,NA,540,1,2520,240,2520,23,distractor
14_14_casillas_tseltal_2015_29,1,14,casillas_tseltal_2015,29,lo'bal,NA,NA,NA,banana,distractor,45,56,0.44554455445544555,NA,2,1,NA,290,3,900,1400,1400,4,distractor
14_14_casillas_tseltal_2015_29,13,14,casillas_tseltal_2015,29,wa,NA,NA,NA,tortilla,distractor,21,71,0.22826086956521738,NA,1,1,NA,540,2,640,640,640,4,distractor
14_14_casillas_tseltal_2015_29,17,14,casillas_tseltal_2015,29,baso,NA,NA,NA,cup,distractor,80,24,0.7692307692307693,NA,1,1,NA,665,1,3200,3200,3200,4,distractor
14_14_casillas_tseltal_2015_29,24,14,casillas_tseltal_2015,29,ja',NA,NA,NA,water,distractor,97,5,0.9509803921568627,NA,1,1,NA,65,0,3880,3880,3880,4,distractor
14_14_casillas_tseltal_2015_29,27,14,casillas_tseltal_2015,29,bojch,NA,NA,NA,bowl-tseltal,distractor,29,70,0.29292929292929293,NA,1,1,NA,490,2,1080,1080,1080,4,distractor
14_14_casillas_tseltal_2015_29,28,14,casillas_tseltal_2015,29,na,NA,NA,NA,house,distractor,46,56,0.45098039215686275,NA,1,1,NA,465,2,1840,1840,1840,4,distractor
14_14_casillas_tseltal_2015_29,29,14,casillas_tseltal_2015,29,te,NA,NA,NA,tree,distractor,88,16,0.8461538461538461,NA,1,1,NA,465,1,3520,3520,3520,4,distractor
14_14_casillas_tseltal_2015_29,33,14,casillas_tseltal_2015,29,tz'i,NA,NA,NA,dog,distractor,77,22,0.7777777777777778,NA,2,1,NA,165,2,1540,2440,2440,4,distractor
14_14_casillas_tseltal_2015_29,35,14,casillas_tseltal_2015,29,p'in,NA,NA,NA,pot-tseltal,distractor,18,85,0.17475728155339806,NA,1,1,NA,815,2,720,720,720,4,distractor
14_14_casillas_tseltal_2015_29,36,14,casillas_tseltal_2015,29,tzek',NA,NA,NA,skirt-tseltal,distractor,67,36,0.6504854368932039,NA,1,1,NA,665,2,2680,2680,2680,4,distractor
14_14_casillas_tseltal_2015_29,37,14,casillas_tseltal_2015,29,ich,NA,NA,NA,chile,distractor,69,34,0.6699029126213593,NA,1,1,NA,340,2,2760,2760,2760,4,distractor
14_14_casillas_tseltal_2015_29,38,14,casillas_tseltal_2015,29,mes,NA,NA,NA,broom,distractor,93,2,0.9789473684210527,NA,1,1,NA,340,0,3720,3720,3720,4,distractor
15_15_casillas_tseltal_2015_39,13,15,casillas_tseltal_2015,39,wa,NA,NA,NA,tortilla,distractor,16,87,0.1553398058252427,NA,1,1,NA,465,2,640,640,640,14,distractor
15_15_casillas_tseltal_2015_39,15,15,casillas_tseltal_2015,39,pelota,NA,NA,NA,ball,distractor,0,106,0,NA,NA,0,NA,NA,0,NA,NA,NA,14,distractor
15_15_casillas_tseltal_2015_39,16,15,casillas_tseltal_2015,39,chojak',NA,NA,NA,purse-tseltal,distractor,73,28,0.7227722772277227,NA,1,1,NA,265,2,2920,2920,2920,14,distractor
15_15_casillas_tseltal_2015_39,19,15,casillas_tseltal_2015,39,balti,NA,NA,NA,bucket,distractor,65,32,0.6701030927835051,NA,1,1,NA,365,2,2400,2400,2400,14,distractor
15_15_casillas_tseltal_2015_39,20,15,casillas_tseltal_2015,39,mut,NA,NA,NA,chicken,distractor,57,43,0.57,NA,2,1,NA,615,3,1140,720,1560,14,distractor
15_15_casillas_tseltal_2015_39,21,15,casillas_tseltal_2015,39,k'ajk',NA,NA,NA,fire,distractor,44,58,0.43137254901960786,NA,2,1,NA,65,3,880,1200,1200,14,distractor
15_15_casillas_tseltal_2015_39,22,15,casillas_tseltal_2015,39,mexa,NA,NA,NA,table,distractor,30,72,0.29411764705882354,NA,1,0,NA,NA,2,1200,1200,1200,14,distractor
15_15_casillas_tseltal_2015_39,24,15,casillas_tseltal_2015,39,ja',NA,NA,NA,water,distractor,36,55,0.3956043956043956,NA,1,1,NA,65,1,1440,1440,1440,14,distractor
15_15_casillas_tseltal_2015_39,27,15,casillas_tseltal_2015,39,bojch,NA,NA,NA,bowl-tseltal,distractor,92,13,0.8761904761904762,NA,1,1,NA,365,1,3680,3680,3680,14,distractor
15_15_casillas_tseltal_2015_39,28,15,casillas_tseltal_2015,39,na,NA,NA,NA,house,distractor,96,6,0.9411764705882353,NA,1,1,NA,265,0,3840,3840,3840,14,distractor
15_15_casillas_tseltal_2015_39,29,15,casillas_tseltal_2015,39,te,NA,NA,NA,tree,distractor,64,34,0.6530612244897959,NA,1,1,NA,215,1,2560,2560,2560,14,distractor
15_15_casillas_tseltal_2015_39,31,15,casillas_tseltal_2015,39,t'inel,NA,NA,NA,doorway,distractor,31,67,0.3163265306122449,NA,2,1,NA,140,3,620,880,880,14,distractor
15_15_casillas_tseltal_2015_39,34,15,casillas_tseltal_2015,39,tomut,NA,NA,NA,egg,distractor,73,29,0.7156862745098039,NA,1,1,NA,265,2,2920,2920,2920,14,distractor
15_15_casillas_tseltal_2015_39,35,15,casillas_tseltal_2015,39,p'in,NA,NA,NA,pot-tseltal,distractor,95,10,0.9047619047619048,NA,1,1,NA,290,1,3800,3800,3800,14,distractor
15_15_casillas_tseltal_2015_39,36,15,casillas_tseltal_2015,39,tzek',NA,NA,NA,skirt-tseltal,distractor,5,78,0.060240963855421686,NA,NA,0,NA,NA,0,NA,200,NA,14,distractor
15_15_casillas_tseltal_2015_39,38,15,casillas_tseltal_2015,39,mes,NA,NA,NA,broom,distractor,79,26,0.7523809523809524,NA,1,1,NA,90,1,3160,3160,3160,14,distractor
15_15_casillas_tseltal_2015_39,39,15,casillas_tseltal_2015,39,machit,NA,NA,NA,machete,distractor,63,37,0.63,NA,1,1,NA,490,2,2440,2440,2440,14,distractor
16_16_casillas_tseltal_2015_41,13,16,casillas_tseltal_2015,41,wa,NA,NA,NA,tortilla,distractor,0,106,0,NA,NA,0,NA,NA,0,NA,NA,NA,16,distractor
16_16_casillas_tseltal_2015_41,14,16,casillas_tseltal_2015,41,moch,NA,NA,NA,basket-tseltal,distractor,84,21,0.8,NA,1,1,NA,565,1,3360,3360,3360,16,distractor
16_16_casillas_tseltal_2015_41,20,16,casillas_tseltal_2015,41,mut,NA,NA,NA,chicken,distractor,45,58,0.4368932038834951,NA,1,1,NA,90,1,1800,1800,1800,16,distractor
16_16_casillas_tseltal_2015_41,24,16,casillas_tseltal_2015,41,ja',NA,NA,NA,water,distractor,60,45,0.5714285714285714,NA,1,1,NA,1165,1,2400,2400,2400,16,distractor
16_16_casillas_tseltal_2015_41,29,16,casillas_tseltal_2015,41,te,NA,NA,NA,tree,distractor,76,29,0.7238095238095238,NA,1,1,NA,765,1,3040,3040,3040,16,distractor
16_16_casillas_tseltal_2015_41,31,16,casillas_tseltal_2015,41,t'inel,NA,NA,NA,doorway,distractor,69,29,0.7040816326530612,NA,2,1,NA,340,3,1380,1400,1400,16,distractor
16_16_casillas_tseltal_2015_41,34,16,casillas_tseltal_2015,41,tomut,NA,NA,NA,egg,distractor,80,24,0.7692307692307693,NA,1,1,NA,665,1,3200,3200,3200,16,distractor
16_16_casillas_tseltal_2015_41,36,16,casillas_tseltal_2015,41,tzek',NA,NA,NA,skirt-tseltal,distractor,26,77,0.2524271844660194,NA,1,0,NA,NA,1,1040,1040,1040,16,distractor
16_16_casillas_tseltal_2015_41,39,16,casillas_tseltal_2015,41,machit,NA,NA,NA,machete,distractor,92,10,0.9019607843137255,NA,2,1,NA,290,1,1840,1680,2000,16,distractor
17_17_casillas_tseltal_2015_32,15,17,casillas_tseltal_2015,32,pelota,NA,NA,NA,ball,distractor,18,87,0.17142857142857143,NA,1,1,NA,265,2,440,440,440,7,distractor
17_17_casillas_tseltal_2015_32,16,17,casillas_tseltal_2015,32,chojak',NA,NA,NA,purse-tseltal,distractor,82,22,0.7884615384615384,NA,1,1,NA,615,1,3280,3280,3280,7,distractor
17_17_casillas_tseltal_2015_32,17,17,casillas_tseltal_2015,32,baso,NA,NA,NA,cup,distractor,60,45,0.5714285714285714,NA,1,1,NA,1165,1,2400,2400,2400,7,distractor
17_17_casillas_tseltal_2015_32,22,17,casillas_tseltal_2015,32,mexa,NA,NA,NA,table,distractor,0,98,0,NA,NA,0,NA,NA,0,NA,NA,NA,7,distractor
17_17_casillas_tseltal_2015_32,28,17,casillas_tseltal_2015,32,na,NA,NA,NA,house,distractor,85,21,0.8018867924528302,NA,1,1,NA,540,1,3400,3400,3400,7,distractor
17_17_casillas_tseltal_2015_32,29,17,casillas_tseltal_2015,32,te,NA,NA,NA,tree,distractor,74,28,0.7254901960784313,NA,2,1,NA,415,3,1480,840,2120,7,distractor
17_17_casillas_tseltal_2015_32,30,17,casillas_tseltal_2015,32,waybal,NA,NA,NA,bed,distractor,75,30,0.7142857142857143,NA,1,1,NA,465,2,3000,3000,3000,7,distractor
17_17_casillas_tseltal_2015_32,32,17,casillas_tseltal_2015,32,chenek',NA,NA,NA,bean,distractor,0,106,0,NA,NA,0,NA,NA,0,NA,NA,NA,7,distractor
17_17_casillas_tseltal_2015_32,33,17,casillas_tseltal_2015,32,tz'i,NA,NA,NA,dog,distractor,84,16,0.84,NA,1,1,NA,415,1,3360,3360,3360,7,distractor
17_17_casillas_tseltal_2015_32,38,17,casillas_tseltal_2015,32,mes,NA,NA,NA,broom,distractor,80,24,0.7692307692307693,NA,1,1,NA,665,1,3200,3200,3200,7,distractor
17_17_casillas_tseltal_2015_32,39,17,casillas_tseltal_2015,32,machit,NA,NA,NA,machete,distractor,61,42,0.5922330097087378,NA,1,1,NA,540,2,2440,2440,2440,7,distractor
18_18_casillas_tseltal_2015_32,13,18,casillas_tseltal_2015,32,wa,NA,NA,NA,tortilla,distractor,42,58,0.42,NA,1,1,NA,415,2,1680,1680,1680,7,distractor
18_18_casillas_tseltal_2015_32,14,18,casillas_tseltal_2015,32,moch,NA,NA,NA,basket-tseltal,distractor,77,23,0.77,NA,1,1,NA,415,2,3080,3080,3080,7,distractor
18_18_casillas_tseltal_2015_32,15,18,casillas_tseltal_2015,32,pelota,NA,NA,NA,ball,distractor,52,48,0.52,NA,1,1,NA,1365,1,2080,2080,2080,7,distractor
18_18_casillas_tseltal_2015_32,17,18,casillas_tseltal_2015,32,baso,NA,NA,NA,cup,distractor,100,5,0.9523809523809523,NA,1,1,NA,165,0,4000,4000,4000,7,distractor
18_18_casillas_tseltal_2015_32,20,18,casillas_tseltal_2015,32,mut,NA,NA,NA,chicken,distractor,38,61,0.3838383838383838,NA,1,0,NA,NA,1,1520,1520,1520,7,distractor
18_18_casillas_tseltal_2015_32,21,18,casillas_tseltal_2015,32,k'ajk',NA,NA,NA,fire,distractor,80,22,0.7843137254901961,NA,1,1,NA,665,1,3200,3200,3200,7,distractor
18_18_casillas_tseltal_2015_32,23,18,casillas_tseltal_2015,32,xawin,NA,NA,NA,cat,distractor,74,26,0.74,NA,2,1,NA,215,2,1480,2000,2000,7,distractor
18_18_casillas_tseltal_2015_32,29,18,casillas_tseltal_2015,32,te,NA,NA,NA,tree,distractor,38,61,0.3838383838383838,NA,1,1,NA,865,2,1520,1520,1520,7,distractor
18_18_casillas_tseltal_2015_32,32,18,casillas_tseltal_2015,32,chenek',NA,NA,NA,bean,distractor,0,106,0,NA,NA,0,NA,NA,0,NA,NA,NA,7,distractor
18_18_casillas_tseltal_2015_32,33,18,casillas_tseltal_2015,32,tz'i,NA,NA,NA,dog,distractor,32,68,0.32,NA,2,1,NA,1015,3,640,960,960,7,distractor
18_18_casillas_tseltal_2015_32,34,18,casillas_tseltal_2015,32,tomut,NA,NA,NA,egg,distractor,39,62,0.38613861386138615,NA,1,0,NA,NA,1,1560,1560,1560,7,distractor
18_18_casillas_tseltal_2015_32,35,18,casillas_tseltal_2015,32,p'in,NA,NA,NA,pot-tseltal,distractor,0,84,0,NA,NA,0,NA,NA,0,NA,NA,NA,7,distractor
18_18_casillas_tseltal_2015_32,36,18,casillas_tseltal_2015,32,tzek',NA,NA,NA,skirt-tseltal,distractor,30,59,0.33707865168539325,NA,1,0,NA,NA,1,1200,1200,1200,7,distractor
18_18_casillas_tseltal_2015_32,37,18,casillas_tseltal_2015,32,ich,NA,NA,NA,chile,distractor,72,31,0.6990291262135923,NA,1,1,NA,65,1,2880,2880,2880,7,distractor
18_18_casillas_tseltal_2015_32,39,18,casillas_tseltal_2015,32,machit,NA,NA,NA,machete,distractor,73,27,0.73,NA,1,1,NA,490,2,2840,2840,2840,7,distractor
18_18_casillas_tseltal_2015_32,40,18,casillas_tseltal_2015,32,si',NA,NA,NA,firewood,distractor,64,25,0.7191011235955056,NA,2,1,NA,65,2,1280,2160,2160,7,distractor
19_19_casillas_tseltal_2015_35,1,19,casillas_tseltal_2015,35,lo'bal,NA,NA,NA,banana,distractor,84,19,0.8155339805825242,NA,1,1,NA,565,1,3360,3360,3360,10,distractor
19_19_casillas_tseltal_2015_35,13,19,casillas_tseltal_2015,35,wa,NA,NA,NA,tortilla,distractor,0,95,0,NA,NA,0,NA,NA,0,NA,NA,NA,10,distractor
19_19_casillas_tseltal_2015_35,14,19,casillas_tseltal_2015,35,moch,NA,NA,NA,basket-tseltal,distractor,0,106,0,NA,NA,0,NA,NA,0,NA,NA,NA,10,distractor
19_19_casillas_tseltal_2015_35,15,19,casillas_tseltal_2015,35,pelota,NA,NA,NA,ball,distractor,0,106,0,NA,NA,0,NA,NA,0,NA,NA,NA,10,distractor
19_19_casillas_tseltal_2015_35,16,19,casillas_tseltal_2015,35,chojak',NA,NA,NA,purse-tseltal,distractor,63,40,0.6116504854368932,NA,1,1,NA,1090,1,2520,2520,2520,10,distractor
19_19_casillas_tseltal_2015_35,18,19,casillas_tseltal_2015,35,nichim,NA,NA,NA,flower,distractor,0,106,0,NA,NA,0,NA,NA,0,NA,NA,NA,10,distractor
19_19_casillas_tseltal_2015_35,19,19,casillas_tseltal_2015,35,balti,NA,NA,NA,bucket,distractor,0,106,0,NA,NA,0,NA,NA,0,NA,NA,NA,10,distractor
19_19_casillas_tseltal_2015_35,21,19,casillas_tseltal_2015,35,k'ajk',NA,NA,NA,fire,distractor,85,19,0.8173076923076923,NA,1,1,NA,540,1,3400,3400,3400,10,distractor
19_19_casillas_tseltal_2015_35,22,19,casillas_tseltal_2015,35,mexa,NA,NA,NA,table,distractor,87,19,0.8207547169811321,NA,1,1,NA,490,1,3480,3480,3480,10,distractor
19_19_casillas_tseltal_2015_35,23,19,casillas_tseltal_2015,35,xawin,NA,NA,NA,cat,distractor,76,29,0.7238095238095238,NA,1,1,NA,765,1,3040,3040,3040,10,distractor
19_19_casillas_tseltal_2015_35,34,19,casillas_tseltal_2015,35,tomut,NA,NA,NA,egg,distractor,0,106,0,NA,NA,0,NA,NA,0,NA,NA,NA,10,distractor
19_19_casillas_tseltal_2015_35,38,19,casillas_tseltal_2015,35,mes,NA,NA,NA,broom,distractor,59,44,0.5728155339805825,NA,1,1,NA,465,2,2360,2360,2360,10,distractor
20_20_casillas_tseltal_2015_36,8,20,casillas_tseltal_2015,36,xila,NA,NA,NA,chair,distractor,35,67,0.3431372549019608,NA,1,1,NA,1215,2,1400,1400,1400,11,distractor
20_20_casillas_tseltal_2015_36,13,20,casillas_tseltal_2015,36,wa,NA,NA,NA,tortilla,distractor,8,94,0.0784313725490196,NA,1,1,NA,615,2,320,320,320,11,distractor
20_20_casillas_tseltal_2015_36,14,20,casillas_tseltal_2015,36,moch,NA,NA,NA,basket-tseltal,distractor,88,16,0.8461538461538461,NA,1,1,NA,465,1,3520,3520,3520,11,distractor
20_20_casillas_tseltal_2015_36,15,20,casillas_tseltal_2015,36,pelota,NA,NA,NA,ball,distractor,50,53,0.4854368932038835,NA,1,1,NA,1415,1,2000,2000,2000,11,distractor
20_20_casillas_tseltal_2015_36,16,20,casillas_tseltal_2015,36,chojak',NA,NA,NA,purse-tseltal,distractor,92,13,0.8761904761904762,NA,1,1,NA,365,1,3680,3680,3680,11,distractor
20_20_casillas_tseltal_2015_36,17,20,casillas_tseltal_2015,36,baso,NA,NA,NA,cup,distractor,59,43,0.5784313725490197,NA,1,1,NA,940,2,2360,2360,2360,11,distractor
20_20_casillas_tseltal_2015_36,23,20,casillas_tseltal_2015,36,xawin,NA,NA,NA,cat,distractor,29,73,0.28431372549019607,NA,1,1,NA,340,2,1160,1160,1160,11,distractor
20_20_casillas_tseltal_2015_36,26,20,casillas_tseltal_2015,36,karo,NA,NA,NA,car,distractor,95,8,0.9223300970873787,NA,1,1,NA,290,1,3800,3800,3800,11,distractor
20_20_casillas_tseltal_2015_36,29,20,casillas_tseltal_2015,36,te,NA,NA,NA,tree,distractor,63,40,0.6116504854368932,NA,1,1,NA,1090,1,2520,2520,2520,11,distractor
20_20_casillas_tseltal_2015_36,31,20,casillas_tseltal_2015,36,t'inel,NA,NA,NA,doorway,distractor,24,79,0.23300970873786409,NA,1,1,NA,340,2,960,960,960,11,distractor
20_20_casillas_tseltal_2015_36,32,20,casillas_tseltal_2015,36,chenek',NA,NA,NA,bean,distractor,46,54,0.46,NA,1,1,NA,865,2,1840,1840,1840,11,distractor
20_20_casillas_tseltal_2015_36,33,20,casillas_tseltal_2015,36,tz'i,NA,NA,NA,dog,distractor,88,16,0.8461538461538461,NA,1,1,NA,465,1,3520,3520,3520,11,distractor
20_20_casillas_tseltal_2015_36,36,20,casillas_tseltal_2015,36,tzek',NA,NA,NA,skirt-tseltal,distractor,82,22,0.7884615384615384,NA,1,1,NA,615,1,3280,3280,3280,11,distractor
20_20_casillas_tseltal_2015_36,37,20,casillas_tseltal_2015,36,ich,NA,NA,NA,chile,distractor,54,42,0.5625,NA,1,1,NA,265,1,2160,2160,2160,11,distractor
20_20_casillas_tseltal_2015_36,39,20,casillas_tseltal_2015,36,machit,NA,NA,NA,machete,distractor,35,68,0.33980582524271846,NA,1,1,NA,665,2,1400,1400,1400,11,distractor
21_21_casillas_tseltal_2015_26,8,21,casillas_tseltal_2015,26,xila,NA,NA,NA,chair,distractor,0,103,0,NA,NA,0,NA,NA,0,NA,NA,NA,1,distractor
21_21_casillas_tseltal_2015_26,17,21,casillas_tseltal_2015,26,baso,NA,NA,NA,cup,distractor,0,103,0,NA,NA,0,NA,NA,0,NA,NA,NA,1,distractor
21_21_casillas_tseltal_2015_26,22,21,casillas_tseltal_2015,26,mexa,NA,NA,NA,table,distractor,0,106,0,NA,NA,0,NA,NA,0,NA,NA,NA,1,distractor
21_21_casillas_tseltal_2015_26,26,21,casillas_tseltal_2015,26,karo,NA,NA,NA,car,distractor,61,43,0.5865384615384616,NA,1,1,NA,1140,1,2440,2440,2440,1,distractor
21_21_casillas_tseltal_2015_26,31,21,casillas_tseltal_2015,26,t'inel,NA,NA,NA,doorway,distractor,69,35,0.6634615384615384,NA,1,1,NA,940,1,2760,2760,2760,1,distractor
21_21_casillas_tseltal_2015_26,32,21,casillas_tseltal_2015,26,chenek',NA,NA,NA,bean,distractor,0,106,0,NA,NA,0,NA,NA,0,NA,NA,NA,1,distractor
21_21_casillas_tseltal_2015_26,33,21,casillas_tseltal_2015,26,tz'i,NA,NA,NA,dog,distractor,70,34,0.6730769230769231,NA,1,1,NA,365,2,2720,2720,2720,1,distractor
21_21_casillas_tseltal_2015_26,35,21,casillas_tseltal_2015,26,p'in,NA,NA,NA,pot-tseltal,distractor,0,106,0,NA,NA,0,NA,NA,0,NA,NA,NA,1,distractor
21_21_casillas_tseltal_2015_26,36,21,casillas_tseltal_2015,26,tzek',NA,NA,NA,skirt-tseltal,distractor,0,106,0,NA,NA,0,NA,NA,0,NA,NA,NA,1,distractor
21_21_casillas_tseltal_2015_26,37,21,casillas_tseltal_2015,26,ich,NA,NA,NA,chile,distractor,0,100,0,NA,NA,0,NA,NA,0,NA,NA,NA,1,distractor
21_21_casillas_tseltal_2015_26,39,21,casillas_tseltal_2015,26,machit,NA,NA,NA,machete,distractor,0,106,0,NA,NA,0,NA,NA,0,NA,NA,NA,1,distractor
21_21_casillas_tseltal_2015_26,40,21,casillas_tseltal_2015,26,si',NA,NA,NA,firewood,distractor,0,106,0,NA,NA,0,NA,NA,0,NA,NA,NA,1,distractor
22_22_casillas_tseltal_2015_36,8,22,casillas_tseltal_2015,36,xila,NA,NA,NA,chair,distractor,0,106,0,NA,NA,0,NA,NA,0,NA,NA,NA,11,distractor
22_22_casillas_tseltal_2015_36,13,22,casillas_tseltal_2015,36,wa,NA,NA,NA,tortilla,distractor,20,82,0.19607843137254902,NA,1,1,NA,465,2,800,800,800,11,distractor
22_22_casillas_tseltal_2015_36,15,22,casillas_tseltal_2015,36,pelota,NA,NA,NA,ball,distractor,19,83,0.18627450980392157,NA,1,1,NA,140,1,760,760,760,11,distractor
22_22_casillas_tseltal_2015_36,20,22,casillas_tseltal_2015,36,mut,NA,NA,NA,chicken,distractor,34,70,0.3269230769230769,NA,1,0,NA,NA,1,1360,1360,1360,11,distractor
22_22_casillas_tseltal_2015_36,28,22,casillas_tseltal_2015,36,na,NA,NA,NA,house,distractor,55,50,0.5238095238095238,NA,1,1,NA,1290,1,2200,2200,2200,11,distractor
22_22_casillas_tseltal_2015_36,30,22,casillas_tseltal_2015,36,waybal,NA,NA,NA,bed,distractor,0,106,0,NA,NA,0,NA,NA,0,NA,NA,NA,11,distractor
22_22_casillas_tseltal_2015_36,31,22,casillas_tseltal_2015,36,t'inel,NA,NA,NA,doorway,distractor,0,101,0,NA,NA,0,NA,NA,0,NA,NA,NA,11,distractor
22_22_casillas_tseltal_2015_36,32,22,casillas_tseltal_2015,36,chenek',NA,NA,NA,bean,distractor,63,42,0.6,NA,1,1,NA,1090,1,2520,2520,2520,11,distractor
22_22_casillas_tseltal_2015_36,33,22,casillas_tseltal_2015,36,tz'i,NA,NA,NA,dog,distractor,79,26,0.7523809523809524,NA,1,1,NA,690,1,3160,3160,3160,11,distractor
22_22_casillas_tseltal_2015_36,36,22,casillas_tseltal_2015,36,tzek',NA,NA,NA,skirt-tseltal,distractor,0,106,0,NA,NA,0,NA,NA,0,NA,NA,NA,11,distractor
22_22_casillas_tseltal_2015_36,37,22,casillas_tseltal_2015,36,ich,NA,NA,NA,chile,distractor,2,102,0.019230769230769232,NA,NA,0,NA,NA,0,NA,NA,NA,11,distractor
22_22_casillas_tseltal_2015_36,40,22,casillas_tseltal_2015,36,si',NA,NA,NA,firewood,distractor,40,64,0.38461538461538464,NA,1,0,NA,NA,1,1600,1600,1600,11,distractor
23_23_ronfard_2021_22,3,23,ronfard_2021,22,car,car,shoe,car-shoe,car,distractor,47,7,0.8703703703703703,0.4597701149425287,1,1,NA,290,1,1566.6666666666667,1566.6666666666667,1566.6666666666667,-3,distractor
23_23_ronfard_2021_22,7,23,ronfard_2021,22,shoe,shoe,car,car-shoe,shoe,distractor,33,23,0.5892857142857143,0.4568965517241379,1,1,NA,640,1,1100,1100,1100,-3,distractor
23_23_ronfard_2021_22,8,23,ronfard_2021,22,cat,cat,dog,cat-dog,cat,distractor,22,32,0.4074074074074074,0.12068965517241378,1,1,NA,915,1,733.3333333333334,733.3333333333334,733.3333333333334,-3,distractor
23_23_ronfard_2021_22,15,23,ronfard_2021,22,birdie,birdie,baby,baby-birdie,birdie,distractor,34,21,0.6181818181818182,NA,1,1,NA,615,1,1133.3333333333335,1133.3333333333335,1133.3333333333335,-3,distractor
23_23_ronfard_2021_22,16,23,ronfard_2021,22,ball,ball,book,ball-book,ball,distractor,27,28,0.4909090909090909,-0.12931034482758624,1,1,NA,790,1,900.0000000000001,900.0000000000001,900.0000000000001,-3,distractor
23_23_ronfard_2021_22,17,23,ronfard_2021,22,car,car,shoe,car-shoe,car,distractor,43,12,0.7818181818181819,0.4597701149425287,1,1,NA,390,1,1433.3333333333335,1433.3333333333335,1433.3333333333335,-3,distractor
23_23_ronfard_2021_22,22,23,ronfard_2021,22,book,book,ball,ball-book,book,distractor,0,58,0,-0.09482758620689657,NA,0,NA,NA,0,NA,NA,NA,-3,distractor
23_23_ronfard_2021_22,26,23,ronfard_2021,22,car,car,shoe,car-shoe,car,distractor,35,20,0.6363636363636364,0.4597701149425287,1,1,NA,590,1,1166.6666666666667,1166.6666666666667,1166.6666666666667,-3,distractor
23_23_ronfard_2021_22,27,23,ronfard_2021,22,shoe,shoe,car,car-shoe,shoe,distractor,46,7,0.8679245283018868,0.4568965517241379,1,1,NA,315,1,1533.3333333333335,1533.3333333333335,1533.3333333333335,-3,distractor
23_23_ronfard_2021_22,30,23,ronfard_2021,22,dog,dog,cat,cat-dog,dog,distractor,51,4,0.9272727272727272,0.10344827586206895,1,1,NA,190,0,1700.0000000000002,1700.0000000000002,1700.0000000000002,-3,distractor
23_23_ronfard_2021_22,37,23,ronfard_2021,22,birdie,birdie,baby,baby-birdie,birdie,distractor,27,24,0.5294117647058824,NA,1,1,NA,440,2,900.0000000000001,900.0000000000001,900.0000000000001,-3,distractor
23_23_ronfard_2021_22,54,23,ronfard_2021,22,cat,cat,dog,cat-dog,cat,distractor,0,58,0,0.12068965517241378,NA,0,NA,NA,0,NA,NA,NA,-3,distractor
23_23_ronfard_2021_22,65,23,ronfard_2021,22,book,book,ball,ball-book,book,distractor,45,11,0.8035714285714286,-0.09482758620689657,1,1,NA,340,1,1500,1500,1500,-3,distractor
24_24_ronfard_2021_19,1,24,ronfard_2021,19,dog,dog,cat,cat-dog,dog,distractor,2,52,0.037037037037037035,-0.2413793103448275,NA,1,NA,1415,0,NA,NA,NA,-6,distractor
24_24_ronfard_2021_19,3,24,ronfard_2021,19,car,car,shoe,car-shoe,car,distractor,51,4,0.9272727272727272,0.4482758620689655,1,1,NA,190,0,1700.0000000000002,1700.0000000000002,1700.0000000000002,-6,distractor
24_24_ronfard_2021_19,4,24,ronfard_2021,19,book,book,ball,ball-book,book,distractor,22,33,0.4,0.12068965517241376,1,1,NA,915,1,733.3333333333334,733.3333333333334,733.3333333333334,-6,distractor
24_24_ronfard_2021_19,8,24,ronfard_2021,19,cat,cat,dog,cat-dog,cat,distractor,11,44,0.2,-0.20689655172413793,1,1,NA,1190,1,366.6666666666667,366.6666666666667,366.6666666666667,-6,distractor
24_24_ronfard_2021_19,15,24,ronfard_2021,19,birdie,birdie,baby,baby-birdie,birdie,distractor,38,17,0.6909090909090909,NA,1,1,NA,40,1,1266.6666666666667,1266.6666666666667,1266.6666666666667,-6,distractor
24_24_ronfard_2021_19,27,24,ronfard_2021,19,shoe,shoe,car,car-shoe,shoe,distractor,30,25,0.5454545454545454,0.4482758620689655,1,1,NA,715,1,1000.0000000000001,1000.0000000000001,1000.0000000000001,-6,distractor
24_24_ronfard_2021_19,30,24,ronfard_2021,19,dog,dog,cat,cat-dog,dog,distractor,49,5,0.9074074074074074,-0.2413793103448275,1,1,NA,240,1,1633.3333333333335,1633.3333333333335,1633.3333333333335,-6,distractor
24_24_ronfard_2021_19,32,24,ronfard_2021,19,ball,ball,book,ball-book,ball,distractor,41,15,0.7321428571428571,0.13793103448275856,1,1,NA,440,1,1366.6666666666667,1366.6666666666667,1366.6666666666667,-6,distractor
24_24_ronfard_2021_19,39,24,ronfard_2021,19,dog,dog,cat,cat-dog,dog,distractor,49,7,0.875,-0.2413793103448275,1,1,NA,240,1,1633.3333333333335,1633.3333333333335,1633.3333333333335,-6,distractor
24_24_ronfard_2021_19,41,24,ronfard_2021,19,birdie,birdie,baby,baby-birdie,birdie,distractor,18,34,0.34615384615384615,NA,1,1,NA,390,2,600,600,600,-6,distractor
24_24_ronfard_2021_19,49,24,ronfard_2021,19,cat,cat,dog,cat-dog,cat,distractor,0,58,0,-0.20689655172413793,NA,0,NA,NA,0,NA,NA,NA,-6,distractor
24_24_ronfard_2021_19,60,24,ronfard_2021,19,dog,dog,cat,cat-dog,dog,distractor,48,6,0.8888888888888888,-0.2413793103448275,1,1,NA,40,1,1600,1600,1600,-6,distractor
25_25_ronfard_2021_20,7,25,ronfard_2021,20,book,book,ball,ball-book,book,distractor,51,2,0.9622641509433962,-0.12068965517241381,1,1,NA,115,0,1700.0000000000002,1700.0000000000002,1700.0000000000002,-5,distractor
25_25_ronfard_2021_20,10,25,ronfard_2021,20,shoe,shoe,car,car-shoe,shoe,distractor,0,52,0,0.008620689655172414,NA,0,NA,NA,0,NA,NA,NA,-5,distractor
25_25_ronfard_2021_20,14,25,ronfard_2021,20,cat,cat,dog,cat-dog,cat,distractor,45,11,0.8035714285714286,0.06896551724137934,1,1,NA,340,1,1500,1500,1500,-5,distractor
25_25_ronfard_2021_20,15,25,ronfard_2021,20,baby,baby,birdie,baby-birdie,baby,distractor,1,51,0.019230769230769232,-0.24137931034482762,NA,1,NA,1440,0,NA,NA,NA,-5,distractor
25_25_ronfard_2021_20,22,25,ronfard_2021,20,birdie,birdie,baby,baby-birdie,birdie,distractor,20,33,0.37735849056603776,-0.18103448275862066,1,1,NA,390,2,666.6666666666667,666.6666666666667,666.6666666666667,-5,distractor
25_25_ronfard_2021_20,32,25,ronfard_2021,20,dog,dog,cat,cat-dog,dog,distractor,25,29,0.46296296296296297,0.04310344827586207,1,1,NA,840,1,833.3333333333334,833.3333333333334,833.3333333333334,-5,distractor
25_25_ronfard_2021_20,35,25,ronfard_2021,20,car,car,shoe,car-shoe,car,distractor,52,0,1,-0.025862068965517238,1,1,NA,15,0,1500,1500,1500,-5,distractor
25_25_ronfard_2021_20,36,25,ronfard_2021,20,shoe,shoe,car,car-shoe,shoe,distractor,1,55,0.017857142857142856,0.008620689655172414,NA,1,NA,1440,0,NA,NA,NA,-5,distractor
25_25_ronfard_2021_20,41,25,ronfard_2021,20,ball,ball,book,ball-book,ball,distractor,0,58,0,-0.034482758620689655,NA,0,NA,NA,0,NA,NA,NA,-5,distractor
25_25_ronfard_2021_20,48,25,ronfard_2021,20,ball,ball,book,ball-book,ball,distractor,0,58,0,-0.034482758620689655,NA,0,NA,NA,0,NA,NA,NA,-5,distractor
25_25_ronfard_2021_20,53,25,ronfard_2021,20,baby,baby,birdie,baby-birdie,baby,distractor,37,10,0.7872340425531915,-0.24137931034482762,1,1,NA,190,0,1233.3333333333335,1233.3333333333335,1233.3333333333335,-5,distractor
25_25_ronfard_2021_20,60,25,ronfard_2021,20,dog,dog,cat,cat-dog,dog,distractor,2,53,0.03636363636363636,0.04310344827586207,NA,1,NA,1415,0,NA,NA,NA,-5,distractor
27_27_ronfard_2021_19,17,27,ronfard_2021,19,cat,cat,dog,cat-dog,cat,distractor,34,20,0.6296296296296297,0.18965517241379304,1,1,NA,615,1,1133.3333333333335,1133.3333333333335,1133.3333333333335,-6,distractor
27_27_ronfard_2021_19,20,27,ronfard_2021,19,birdie,birdie,baby,baby-birdie,birdie,distractor,33,23,0.5892857142857143,-0.06896551724137934,1,1,NA,640,1,1100,1100,1100,-6,distractor
27_27_ronfard_2021_19,28,27,ronfard_2021,19,birdie,birdie,baby,baby-birdie,birdie,distractor,42,13,0.7636363636363637,-0.06896551724137934,1,1,NA,415,1,1400,1400,1400,-6,distractor
27_27_ronfard_2021_19,32,27,ronfard_2021,19,birdie,birdie,baby,baby-birdie,birdie,distractor,39,11,0.78,-0.06896551724137934,1,1,NA,340,1,1300,1300,1300,-6,distractor
27_27_ronfard_2021_19,37,27,ronfard_2021,19,dog,dog,cat,cat-dog,dog,distractor,31,23,0.5740740740740741,0.18965517241379304,1,1,NA,690,1,1033.3333333333335,1033.3333333333335,1033.3333333333335,-6,distractor
27_27_ronfard_2021_19,51,27,ronfard_2021,19,baby,baby,birdie,baby-birdie,baby,distractor,9,42,0.17647058823529413,-0.11494252873563218,1,1,NA,215,2,300,300,300,-6,distractor
27_27_ronfard_2021_19,56,27,ronfard_2021,19,ball,ball,book,ball-book,ball,distractor,26,29,0.4727272727272727,NA,1,1,NA,815,1,866.6666666666667,866.6666666666667,866.6666666666667,-6,distractor
27_27_ronfard_2021_19,60,27,ronfard_2021,19,car,car,shoe,car-shoe,car,distractor,31,24,0.5636363636363636,NA,1,1,NA,690,1,1033.3333333333335,1033.3333333333335,1033.3333333333335,-6,distractor
28_28_ronfard_2021_18,1,28,ronfard_2021,18,dog,dog,cat,cat-dog,dog,distractor,0,58,0,-0.12068965517241378,NA,0,NA,NA,0,NA,NA,NA,-7,distractor
28_28_ronfard_2021_18,8,28,ronfard_2021,18,cat,cat,dog,cat-dog,cat,distractor,31,21,0.5961538461538461,-0.1293103448275863,1,1,NA,690,1,1033.3333333333335,1033.3333333333335,1033.3333333333335,-7,distractor
28_28_ronfard_2021_18,15,28,ronfard_2021,18,birdie,birdie,baby,baby-birdie,birdie,distractor,58,0,1,NA,1,1,NA,15,0,1933.3333333333335,1933.3333333333335,1933.3333333333335,-7,distractor
28_28_ronfard_2021_18,16,28,ronfard_2021,18,ball,ball,book,ball-book,ball,distractor,13,43,0.23214285714285715,NA,1,1,NA,1140,1,433.33333333333337,433.33333333333337,433.33333333333337,-7,distractor
28_28_ronfard_2021_18,17,28,ronfard_2021,18,car,car,shoe,car-shoe,car,distractor,0,32,0,-0.5086206896551724,NA,0,NA,NA,0,NA,NA,NA,-7,distractor
28_28_ronfard_2021_18,27,28,ronfard_2021,18,shoe,shoe,car,car-shoe,shoe,distractor,23,32,0.41818181818181815,-0.14655172413793105,1,1,NA,890,1,766.6666666666667,766.6666666666667,766.6666666666667,-7,distractor
28_28_ronfard_2021_18,30,28,ronfard_2021,18,dog,dog,cat,cat-dog,dog,distractor,25,25,0.5,-0.12068965517241378,1,1,NA,215,2,833.3333333333334,833.3333333333334,833.3333333333334,-7,distractor
28_28_ronfard_2021_18,37,28,ronfard_2021,18,birdie,birdie,baby,baby-birdie,birdie,distractor,0,58,0,NA,NA,0,NA,NA,0,NA,NA,NA,-7,distractor
28_28_ronfard_2021_18,39,28,ronfard_2021,18,dog,dog,cat,cat-dog,dog,distractor,0,58,0,-0.12068965517241378,NA,0,NA,NA,0,NA,NA,NA,-7,distractor
28_28_ronfard_2021_18,45,28,ronfard_2021,18,birdie,birdie,baby,baby-birdie,birdie,distractor,54,0,1,NA,1,1,NA,115,0,1800.0000000000002,1800.0000000000002,1800.0000000000002,-7,distractor
28_28_ronfard_2021_18,60,28,ronfard_2021,18,dog,dog,cat,cat-dog,dog,distractor,31,13,0.7045454545454546,-0.12068965517241378,1,1,NA,690,1,1033.3333333333335,1033.3333333333335,1033.3333333333335,-7,distractor
28_28_ronfard_2021_18,63,28,ronfard_2021,18,shoe,shoe,car,car-shoe,shoe,distractor,24,27,0.47058823529411764,-0.14655172413793105,1,1,NA,615,2,800,800,800,-7,distractor
29_29_ronfard_2021_22,1,29,ronfard_2021,22,shoe,shoe,car,car-shoe,shoe,distractor,30,25,0.5454545454545454,-0.2413793103448275,1,1,NA,715,1,1000.0000000000001,1000.0000000000001,1000.0000000000001,-3,distractor
29_29_ronfard_2021_22,2,29,ronfard_2021,22,book,book,ball,ball-book,book,distractor,43,12,0.7818181818181819,0.15517241379310354,1,1,NA,390,1,1433.3333333333335,1433.3333333333335,1433.3333333333335,-3,distractor
29_29_ronfard_2021_22,9,29,ronfard_2021,22,cat,cat,dog,cat-dog,cat,distractor,23,32,0.41818181818181815,NA,1,1,NA,890,1,766.6666666666667,766.6666666666667,766.6666666666667,-3,distractor
29_29_ronfard_2021_22,14,29,ronfard_2021,22,cat,cat,dog,cat-dog,cat,distractor,41,13,0.7592592592592593,NA,1,1,NA,440,1,1366.6666666666667,1366.6666666666667,1366.6666666666667,-3,distractor
29_29_ronfard_2021_22,25,29,ronfard_2021,22,birdie,birdie,baby,baby-birdie,birdie,distractor,45,11,0.8035714285714286,NA,1,1,NA,340,1,1500,1500,1500,-3,distractor
29_29_ronfard_2021_22,30,29,ronfard_2021,22,car,car,shoe,car-shoe,car,distractor,11,44,0.2,-0.24137931034482757,1,1,NA,1190,1,366.6666666666667,366.6666666666667,366.6666666666667,-3,distractor
29_29_ronfard_2021_22,43,29,ronfard_2021,22,ball,ball,book,ball-book,ball,distractor,0,34,0,-0.20689655172413793,NA,0,NA,NA,0,NA,NA,NA,-3,distractor
30_30_ronfard_2021_23,22,30,ronfard_2021,23,birdie,birdie,baby,baby-birdie,birdie,distractor,38,16,0.7037037037037037,NA,1,1,NA,515,1,1266.6666666666667,1266.6666666666667,1266.6666666666667,-2,distractor
30_30_ronfard_2021_23,29,30,ronfard_2021,23,ball,ball,book,ball-book,ball,distractor,9,43,0.17307692307692307,NA,1,1,NA,1240,1,300,300,300,-2,distractor
30_30_ronfard_2021_23,30,30,ronfard_2021,23,birdie,birdie,baby,baby-birdie,birdie,distractor,35,13,0.7291666666666666,NA,1,1,NA,515,1,1166.6666666666667,1166.6666666666667,1166.6666666666667,-2,distractor
30_30_ronfard_2021_23,41,30,ronfard_2021,23,ball,ball,book,ball-book,ball,distractor,24,29,0.4528301886792453,NA,1,1,NA,540,2,800,800,800,-2,distractor
30_30_ronfard_2021_23,57,30,ronfard_2021,23,birdie,birdie,baby,baby-birdie,birdie,distractor,53,1,0.9814814814814815,NA,1,1,NA,140,0,1766.6666666666667,1766.6666666666667,1766.6666666666667,-2,distractor
30_30_ronfard_2021_23,60,30,ronfard_2021,23,dog,dog,cat,cat-dog,dog,distractor,37,19,0.6607142857142857,NA,1,1,NA,540,1,1233.3333333333335,1233.3333333333335,1233.3333333333335,-2,distractor
31_31_ronfard_2021_19,6,31,ronfard_2021,19,shoe,shoe,car,car-shoe,shoe,distractor,17,39,0.30357142857142855,0.06321839080459768,1,1,NA,1040,1,566.6666666666667,566.6666666666667,566.6666666666667,-6,distractor
31_31_ronfard_2021_19,15,31,ronfard_2021,19,baby,baby,birdie,baby-birdie,baby,distractor,45,11,0.8035714285714286,0.6379310344827587,1,1,NA,340,1,1500,1500,1500,-6,distractor
31_31_ronfard_2021_19,29,31,ronfard_2021,19,ball,ball,book,ball-book,ball,distractor,18,36,0.3333333333333333,NA,1,1,NA,1015,1,600,600,600,-6,distractor
31_31_ronfard_2021_19,34,31,ronfard_2021,19,birdie,birdie,baby,baby-birdie,birdie,distractor,46,8,0.8518518518518519,0.603448275862069,1,1,NA,240,1,1533.3333333333335,1533.3333333333335,1533.3333333333335,-6,distractor
31_31_ronfard_2021_19,35,31,ronfard_2021,19,car,car,shoe,car-shoe,car,distractor,36,20,0.6428571428571429,0.02298850574712641,1,1,NA,540,1,1200,1200,1200,-6,distractor
31_31_ronfard_2021_19,41,31,ronfard_2021,19,ball,ball,book,ball-book,ball,distractor,0,44,0,NA,NA,0,NA,NA,0,NA,NA,NA,-6,distractor
31_31_ronfard_2021_19,43,31,ronfard_2021,19,car,car,shoe,car-shoe,car,distractor,46,6,0.8846153846153846,0.02298850574712641,1,1,NA,240,1,1533.3333333333335,1533.3333333333335,1533.3333333333335,-6,distractor
31_31_ronfard_2021_19,62,31,ronfard_2021,19,car,car,shoe,car-shoe,car,distractor,39,14,0.7358490566037735,0.02298850574712641,1,1,NA,215,2,1300,1300,1300,-6,distractor
32_32_ronfard_2021_20,1,32,ronfard_2021,20,dog,dog,cat,cat-dog,dog,distractor,7,41,0.14583333333333334,NA,NA,1,NA,1290,0,NA,233.33333333333334,NA,-5,distractor
32_32_ronfard_2021_20,23,32,ronfard_2021,20,ball,ball,book,ball-book,ball,distractor,9,47,0.16071428571428573,NA,1,1,NA,1240,1,300,300,300,-5,distractor
32_32_ronfard_2021_20,27,32,ronfard_2021,20,shoe,shoe,car,car-shoe,shoe,distractor,0,30,0,NA,NA,0,NA,NA,0,NA,NA,NA,-5,distractor
32_32_ronfard_2021_20,30,32,ronfard_2021,20,dog,dog,cat,cat-dog,dog,distractor,32,17,0.6530612244897959,NA,1,1,NA,490,1,1066.6666666666667,1066.6666666666667,1066.6666666666667,-5,distractor
34_34_ronfard_2021_20,3,34,ronfard_2021,20,car,car,shoe,car-shoe,car,distractor,26,29,0.4727272727272727,-0.1637931034482759,1,1,NA,815,1,866.6666666666667,866.6666666666667,866.6666666666667,-5,distractor
34_34_ronfard_2021_20,8,34,ronfard_2021,20,cat,cat,dog,cat-dog,cat,distractor,0,58,0,-0.09913793103448276,NA,0,NA,NA,0,NA,NA,NA,-5,distractor
34_34_ronfard_2021_20,15,34,ronfard_2021,20,birdie,birdie,baby,baby-birdie,birdie,distractor,11,43,0.2037037037037037,-0.04597701149425287,1,1,NA,1190,1,366.6666666666667,366.6666666666667,366.6666666666667,-5,distractor
34_34_ronfard_2021_20,17,34,ronfard_2021,20,car,car,shoe,car-shoe,car,distractor,50,4,0.9259259259259259,-0.1637931034482759,1,1,NA,215,1,1666.6666666666667,1666.6666666666667,1666.6666666666667,-5,distractor
34_34_ronfard_2021_20,22,34,ronfard_2021,20,book,book,ball,ball-book,book,distractor,30,25,0.5454545454545454,NA,1,1,NA,40,1,1000.0000000000001,1000.0000000000001,1000.0000000000001,-5,distractor
34_34_ronfard_2021_20,30,34,ronfard_2021,20,dog,dog,cat,cat-dog,dog,distractor,37,15,0.7115384615384616,-0.18534482758620685,1,1,NA,540,1,1233.3333333333335,1233.3333333333335,1233.3333333333335,-5,distractor
34_34_ronfard_2021_20,41,34,ronfard_2021,20,birdie,birdie,baby,baby-birdie,birdie,distractor,49,7,0.875,-0.04597701149425287,1,1,NA,240,1,1633.3333333333335,1633.3333333333335,1633.3333333333335,-5,distractor
34_34_ronfard_2021_20,43,34,ronfard_2021,20,cat,cat,dog,cat-dog,cat,distractor,0,58,0,-0.09913793103448276,NA,0,NA,NA,0,NA,NA,NA,-5,distractor
34_34_ronfard_2021_20,45,34,ronfard_2021,20,birdie,birdie,baby,baby-birdie,birdie,distractor,13,34,0.2765957446808511,-0.04597701149425287,1,1,NA,1140,1,433.33333333333337,433.33333333333337,433.33333333333337,-5,distractor
34_34_ronfard_2021_20,49,34,ronfard_2021,20,cat,cat,dog,cat-dog,cat,distractor,0,56,0,-0.09913793103448276,NA,0,NA,NA,0,NA,NA,NA,-5,distractor
34_34_ronfard_2021_20,51,34,ronfard_2021,20,shoe,shoe,car,car-shoe,shoe,distractor,17,37,0.3148148148148148,-0.13793103448275865,1,1,NA,1040,1,566.6666666666667,566.6666666666667,566.6666666666667,-5,distractor
34_34_ronfard_2021_20,54,34,ronfard_2021,20,cat,cat,dog,cat-dog,cat,distractor,37,19,0.6607142857142857,-0.09913793103448276,1,1,NA,540,1,1233.3333333333335,1233.3333333333335,1233.3333333333335,-5,distractor
34_34_ronfard_2021_20,58,34,ronfard_2021,20,baby,baby,birdie,baby-birdie,baby,distractor,29,27,0.5178571428571429,0.017241379310344807,1,1,NA,740,1,966.6666666666667,966.6666666666667,966.6666666666667,-5,distractor
34_34_ronfard_2021_20,63,34,ronfard_2021,20,shoe,shoe,car,car-shoe,shoe,distractor,0,58,0,-0.13793103448275865,NA,0,NA,NA,0,NA,NA,NA,-5,distractor
34_34_ronfard_2021_20,65,34,ronfard_2021,20,book,book,ball,ball-book,book,distractor,0,58,0,NA,NA,0,NA,NA,0,NA,NA,NA,-5,distractor
35_35_ronfard_2021_18,1,35,ronfard_2021,18,dog,dog,cat,cat-dog,dog,distractor,42,5,0.8936170212765957,0.2586206896551724,1,1,NA,90,1,1400,1400,1400,-7,distractor
35_35_ronfard_2021_18,3,35,ronfard_2021,18,car,car,shoe,car-shoe,car,distractor,37,19,0.6607142857142857,0.18965517241379304,1,1,NA,540,1,1233.3333333333335,1233.3333333333335,1233.3333333333335,-7,distractor
35_35_ronfard_2021_18,7,35,ronfard_2021,18,shoe,shoe,car,car-shoe,shoe,distractor,33,21,0.6111111111111112,0.2011494252873563,1,1,NA,640,1,1100,1100,1100,-7,distractor
35_35_ronfard_2021_18,8,35,ronfard_2021,18,cat,cat,dog,cat-dog,cat,distractor,38,16,0.7037037037037037,0.31034482758620685,1,1,NA,515,1,1266.6666666666667,1266.6666666666667,1266.6666666666667,-7,distractor
35_35_ronfard_2021_18,16,35,ronfard_2021,18,ball,ball,book,ball-book,ball,distractor,29,27,0.5178571428571429,NA,1,1,NA,740,1,966.6666666666667,966.6666666666667,966.6666666666667,-7,distractor
35_35_ronfard_2021_18,17,35,ronfard_2021,18,car,car,shoe,car-shoe,car,distractor,32,14,0.6956521739130435,0.18965517241379304,1,1,NA,315,2,1066.6666666666667,1066.6666666666667,1066.6666666666667,-7,distractor
35_35_ronfard_2021_18,23,35,ronfard_2021,18,ball,ball,book,ball-book,ball,distractor,42,12,0.7777777777777778,NA,1,1,NA,415,1,1400,1400,1400,-7,distractor
35_35_ronfard_2021_18,27,35,ronfard_2021,18,shoe,shoe,car,car-shoe,shoe,distractor,25,25,0.5,0.2011494252873563,1,1,NA,390,2,833.3333333333334,833.3333333333334,833.3333333333334,-7,distractor
35_35_ronfard_2021_18,48,35,ronfard_2021,18,car,car,shoe,car-shoe,car,distractor,33,19,0.6346153846153846,0.18965517241379304,1,1,NA,215,2,1100,1100,1100,-7,distractor
35_35_ronfard_2021_18,55,35,ronfard_2021,18,baby,baby,birdie,baby-birdie,baby,distractor,43,11,0.7962962962962963,NA,1,1,NA,390,1,1433.3333333333335,1433.3333333333335,1433.3333333333335,-7,distractor
35_35_ronfard_2021_18,60,35,ronfard_2021,18,dog,dog,cat,cat-dog,dog,distractor,20,35,0.36363636363636365,0.2586206896551724,1,1,NA,15,1,666.6666666666667,666.6666666666667,666.6666666666667,-7,distractor
36_36_ronfard_2021_18,6,36,ronfard_2021,18,shoe,shoe,car,car-shoe,shoe,distractor,43,11,0.7962962962962963,0.3448275862068966,1,1,NA,390,1,1433.3333333333335,1433.3333333333335,1433.3333333333335,-7,distractor
36_36_ronfard_2021_18,7,36,ronfard_2021,18,book,book,ball,ball-book,book,distractor,37,19,0.6607142857142857,NA,1,1,NA,540,1,1233.3333333333335,1233.3333333333335,1233.3333333333335,-7,distractor
36_36_ronfard_2021_18,14,36,ronfard_2021,18,cat,cat,dog,cat-dog,cat,distractor,37,14,0.7254901960784313,0.4827586206896552,1,1,NA,290,2,1233.3333333333335,1233.3333333333335,1233.3333333333335,-7,distractor
36_36_ronfard_2021_18,19,36,ronfard_2021,18,cat,cat,dog,cat-dog,cat,distractor,29,22,0.5686274509803921,0.4827586206896552,1,1,NA,490,2,966.6666666666667,966.6666666666667,966.6666666666667,-7,distractor
36_36_ronfard_2021_18,22,36,ronfard_2021,18,birdie,birdie,baby,baby-birdie,birdie,distractor,45,9,0.8333333333333334,NA,1,1,NA,340,1,1500,1500,1500,-7,distractor
36_36_ronfard_2021_18,25,36,ronfard_2021,18,car,car,shoe,car-shoe,car,distractor,54,1,0.9818181818181818,0.36206896551724144,1,1,NA,115,0,1800.0000000000002,1800.0000000000002,1800.0000000000002,-7,distractor
36_36_ronfard_2021_18,32,36,ronfard_2021,18,dog,dog,cat,cat-dog,dog,distractor,42,5,0.8936170212765957,0.41379310344827586,1,1,NA,215,1,1333.3333333333335,1333.3333333333335,1333.3333333333335,-7,distractor
36_36_ronfard_2021_18,34,36,ronfard_2021,18,birdie,birdie,baby,baby-birdie,birdie,distractor,32,16,0.6666666666666666,NA,1,1,NA,340,1,1066.6666666666667,1066.6666666666667,1066.6666666666667,-7,distractor
36_36_ronfard_2021_18,35,36,ronfard_2021,18,car,car,shoe,car-shoe,car,distractor,26,26,0.5,0.36206896551724144,1,1,NA,190,1,866.6666666666667,866.6666666666667,866.6666666666667,-7,distractor
36_36_ronfard_2021_18,36,36,ronfard_2021,18,shoe,shoe,car,car-shoe,shoe,distractor,24,27,0.47058823529411764,0.3448275862068966,1,1,NA,590,2,800,800,800,-7,distractor
37_37_ronfard_2021_21,3,37,ronfard_2021,21,car,car,shoe,car-shoe,car,distractor,17,37,0.3148148148148148,0.09913793103448276,1,1,NA,1040,1,566.6666666666667,566.6666666666667,566.6666666666667,-4,distractor
37_37_ronfard_2021_21,4,37,ronfard_2021,21,book,book,ball,ball-book,book,distractor,37,19,0.6607142857142857,0.13793103448275867,1,1,NA,540,1,1233.3333333333335,1233.3333333333335,1233.3333333333335,-4,distractor
37_37_ronfard_2021_21,7,37,ronfard_2021,21,shoe,shoe,car,car-shoe,shoe,distractor,37,19,0.6607142857142857,0.2887931034482759,1,1,NA,540,1,1233.3333333333335,1233.3333333333335,1233.3333333333335,-4,distractor
37_37_ronfard_2021_21,8,37,ronfard_2021,21,cat,cat,dog,cat-dog,cat,distractor,0,39,0,0.10919540229885058,NA,0,NA,NA,0,NA,NA,NA,-4,distractor
37_37_ronfard_2021_21,17,37,ronfard_2021,21,car,car,shoe,car-shoe,car,distractor,46,9,0.8363636363636363,0.09913793103448276,1,1,NA,315,1,1533.3333333333335,1533.3333333333335,1533.3333333333335,-4,distractor
37_37_ronfard_2021_21,19,37,ronfard_2021,21,baby,baby,birdie,baby-birdie,baby,distractor,38,19,0.6666666666666666,NA,1,1,NA,515,1,1266.6666666666667,1266.6666666666667,1266.6666666666667,-4,distractor
37_37_ronfard_2021_21,23,37,ronfard_2021,21,ball,ball,book,ball-book,ball,distractor,26,29,0.4727272727272727,0.12068965517241381,1,1,NA,815,1,866.6666666666667,866.6666666666667,866.6666666666667,-4,distractor
37_37_ronfard_2021_21,26,37,ronfard_2021,21,car,car,shoe,car-shoe,car,distractor,35,19,0.6481481481481481,0.09913793103448276,1,1,NA,590,1,1166.6666666666667,1166.6666666666667,1166.6666666666667,-4,distractor
37_37_ronfard_2021_21,30,37,ronfard_2021,21,dog,dog,cat,cat-dog,dog,distractor,45,9,0.8333333333333334,0.2586206896551724,1,1,NA,340,1,1500,1500,1500,-4,distractor
37_37_ronfard_2021_21,36,37,ronfard_2021,21,ball,ball,book,ball-book,ball,distractor,26,29,0.4727272727272727,0.12068965517241381,1,1,NA,815,1,866.6666666666667,866.6666666666667,866.6666666666667,-4,distractor
37_37_ronfard_2021_21,39,37,ronfard_2021,21,dog,dog,cat,cat-dog,dog,distractor,43,12,0.7818181818181819,0.2586206896551724,1,1,NA,390,1,1433.3333333333335,1433.3333333333335,1433.3333333333335,-4,distractor
37_37_ronfard_2021_21,43,37,ronfard_2021,21,cat,cat,dog,cat-dog,cat,distractor,32,21,0.6037735849056604,0.10919540229885058,1,1,NA,90,1,1066.6666666666667,1066.6666666666667,1066.6666666666667,-4,distractor
37_37_ronfard_2021_21,48,37,ronfard_2021,21,car,car,shoe,car-shoe,car,distractor,1,16,0.058823529411764705,0.09913793103448276,NA,1,NA,1440,0,NA,NA,NA,-4,distractor
37_37_ronfard_2021_21,55,37,ronfard_2021,21,baby,baby,birdie,baby-birdie,baby,distractor,20,33,0.37735849056603776,NA,1,1,NA,440,2,666.6666666666667,666.6666666666667,666.6666666666667,-4,distractor
37_37_ronfard_2021_21,60,37,ronfard_2021,21,dog,dog,cat,cat-dog,dog,distractor,47,8,0.8545454545454545,0.2586206896551724,1,1,NA,290,1,1566.6666666666667,1566.6666666666667,1566.6666666666667,-4,distractor
38_38_ronfard_2021_18,1,38,ronfard_2021,18,baby,baby,birdie,baby-birdie,baby,distractor,27,28,0.4909090909090909,0.025862068965517238,1,1,NA,790,1,900.0000000000001,900.0000000000001,900.0000000000001,-7,distractor
38_38_ronfard_2021_18,6,38,ronfard_2021,18,shoe,shoe,car,car-shoe,shoe,distractor,29,27,0.5178571428571429,0.16379310344827586,1,1,NA,740,1,966.6666666666667,966.6666666666667,966.6666666666667,-7,distractor
38_38_ronfard_2021_18,10,38,ronfard_2021,18,shoe,shoe,car,car-shoe,shoe,distractor,0,58,0,0.16379310344827586,NA,0,NA,NA,0,NA,NA,NA,-7,distractor
38_38_ronfard_2021_18,14,38,ronfard_2021,18,cat,cat,dog,cat-dog,cat,distractor,0,58,0,-0.3017241379310345,NA,0,NA,NA,0,NA,NA,NA,-7,distractor
38_38_ronfard_2021_18,19,38,ronfard_2021,18,cat,cat,dog,cat-dog,cat,distractor,27,27,0.5,-0.3017241379310345,1,1,NA,790,1,900.0000000000001,900.0000000000001,900.0000000000001,-7,distractor
38_38_ronfard_2021_18,25,38,ronfard_2021,18,car,car,shoe,car-shoe,car,distractor,45,9,0.8333333333333334,0.12068965517241381,1,1,NA,340,1,1500,1500,1500,-7,distractor
38_38_ronfard_2021_18,29,38,ronfard_2021,18,ball,ball,book,ball-book,ball,distractor,33,18,0.6470588235294118,NA,1,1,NA,415,2,1100,1100,1100,-7,distractor
38_38_ronfard_2021_18,30,38,ronfard_2021,18,birdie,birdie,baby,baby-birdie,birdie,distractor,38,16,0.7037037037037037,0.051724137931034475,1,1,NA,515,1,1266.6666666666667,1266.6666666666667,1266.6666666666667,-7,distractor
38_38_ronfard_2021_18,41,38,ronfard_2021,18,ball,ball,book,ball-book,ball,distractor,29,27,0.5178571428571429,NA,1,1,NA,740,1,966.6666666666667,966.6666666666667,966.6666666666667,-7,distractor
38_38_ronfard_2021_18,43,38,ronfard_2021,18,car,car,shoe,car-shoe,car,distractor,54,1,0.9818181818181818,0.12068965517241381,1,1,NA,115,0,1800.0000000000002,1800.0000000000002,1800.0000000000002,-7,distractor
38_38_ronfard_2021_18,53,38,ronfard_2021,18,baby,baby,birdie,baby-birdie,baby,distractor,8,42,0.16,0.025862068965517238,1,1,NA,115,1,266.6666666666667,266.6666666666667,266.6666666666667,-7,distractor
38_38_ronfard_2021_18,60,38,ronfard_2021,18,dog,dog,cat,cat-dog,dog,distractor,23,31,0.42592592592592593,-0.3362068965517241,1,1,NA,890,1,766.6666666666667,766.6666666666667,766.6666666666667,-7,distractor
39_39_ronfard_2021_23,14,39,ronfard_2021,23,cat,cat,dog,cat-dog,cat,distractor,46,8,0.8518518518518519,NA,1,1,NA,315,1,1533.3333333333335,1533.3333333333335,1533.3333333333335,-2,distractor
39_39_ronfard_2021_23,19,39,ronfard_2021,23,cat,cat,dog,cat-dog,cat,distractor,46,8,0.8518518518518519,NA,1,1,NA,315,1,1533.3333333333335,1533.3333333333335,1533.3333333333335,-2,distractor
39_39_ronfard_2021_23,22,39,ronfard_2021,23,birdie,birdie,baby,baby-birdie,birdie,distractor,46,8,0.8518518518518519,0.5172413793103449,1,1,NA,315,1,1533.3333333333335,1533.3333333333335,1533.3333333333335,-2,distractor
39_39_ronfard_2021_23,25,39,ronfard_2021,23,car,car,shoe,car-shoe,car,distractor,51,4,0.9272727272727272,NA,1,1,NA,190,0,1700.0000000000002,1700.0000000000002,1700.0000000000002,-2,distractor
39_39_ronfard_2021_23,30,39,ronfard_2021,23,birdie,birdie,baby,baby-birdie,birdie,distractor,53,1,0.9814814814814815,0.5172413793103449,1,1,NA,140,0,1766.6666666666667,1766.6666666666667,1766.6666666666667,-2,distractor
39_39_ronfard_2021_23,34,39,ronfard_2021,23,birdie,birdie,baby,baby-birdie,birdie,distractor,57,0,1,0.5172413793103449,1,1,NA,40,0,1900.0000000000002,1900.0000000000002,1900.0000000000002,-2,distractor
39_39_ronfard_2021_23,43,39,ronfard_2021,23,car,car,shoe,car-shoe,car,distractor,37,14,0.7254901960784313,NA,1,1,NA,115,1,1233.3333333333335,1233.3333333333335,1233.3333333333335,-2,distractor
39_39_ronfard_2021_23,45,39,ronfard_2021,23,baby,baby,birdie,baby-birdie,baby,distractor,28,22,0.56,0.4310344827586207,1,1,NA,290,2,933.3333333333334,933.3333333333334,933.3333333333334,-2,distractor
40_40_ronfard_2021_22,3,40,ronfard_2021,22,car,car,shoe,car-shoe,car,distractor,49,5,0.9074074074074074,0.4712643678160919,1,1,NA,240,1,1633.3333333333335,1633.3333333333335,1633.3333333333335,-3,distractor
40_40_ronfard_2021_22,4,40,ronfard_2021,22,book,book,ball,ball-book,book,distractor,33,21,0.6111111111111112,NA,1,1,NA,640,1,1100,1100,1100,-3,distractor
40_40_ronfard_2021_22,7,40,ronfard_2021,22,shoe,shoe,car,car-shoe,shoe,distractor,51,4,0.9272727272727272,0.47413793103448276,1,1,NA,190,0,1700.0000000000002,1700.0000000000002,1700.0000000000002,-3,distractor
40_40_ronfard_2021_22,8,40,ronfard_2021,22,cat,cat,dog,cat-dog,cat,distractor,37,19,0.6607142857142857,-0.33045977011494254,1,1,NA,540,1,1233.3333333333335,1233.3333333333335,1233.3333333333335,-3,distractor
40_40_ronfard_2021_22,10,40,ronfard_2021,22,baby,baby,birdie,baby-birdie,baby,distractor,53,3,0.9464285714285714,NA,1,1,NA,140,0,1766.6666666666667,1766.6666666666667,1766.6666666666667,-3,distractor
40_40_ronfard_2021_22,17,40,ronfard_2021,22,car,car,shoe,car-shoe,car,distractor,51,4,0.9272727272727272,0.4712643678160919,1,1,NA,190,0,1700.0000000000002,1700.0000000000002,1700.0000000000002,-3,distractor
40_40_ronfard_2021_22,22,40,ronfard_2021,22,book,book,ball,ball-book,book,distractor,1,55,0.017857142857142856,NA,NA,1,NA,1440,0,NA,NA,NA,-3,distractor
40_40_ronfard_2021_22,27,40,ronfard_2021,22,shoe,shoe,car,car-shoe,shoe,distractor,45,6,0.8823529411764706,0.47413793103448276,1,1,NA,90,1,1500,1500,1500,-3,distractor
40_40_ronfard_2021_22,30,40,ronfard_2021,22,dog,dog,cat,cat-dog,dog,distractor,25,27,0.4807692307692308,-0.4051724137931034,1,1,NA,840,1,833.3333333333334,833.3333333333334,833.3333333333334,-3,distractor
40_40_ronfard_2021_22,39,40,ronfard_2021,22,dog,dog,cat,cat-dog,dog,distractor,18,36,0.3333333333333333,-0.4051724137931034,1,1,NA,1015,1,600,600,600,-3,distractor
40_40_ronfard_2021_22,49,40,ronfard_2021,22,cat,cat,dog,cat-dog,cat,distractor,0,58,0,-0.33045977011494254,NA,0,NA,NA,0,NA,NA,NA,-3,distractor
40_40_ronfard_2021_22,54,40,ronfard_2021,22,cat,cat,dog,cat-dog,cat,distractor,0,58,0,-0.33045977011494254,NA,0,NA,NA,0,NA,NA,NA,-3,distractor
40_40_ronfard_2021_22,55,40,ronfard_2021,22,baby,baby,birdie,baby-birdie,baby,distractor,45,8,0.8490566037735849,NA,1,1,NA,340,1,1500,1500,1500,-3,distractor
40_40_ronfard_2021_22,58,40,ronfard_2021,22,baby,baby,birdie,baby-birdie,baby,distractor,26,28,0.48148148148148145,NA,1,1,NA,815,1,866.6666666666667,866.6666666666667,866.6666666666667,-3,distractor
40_40_ronfard_2021_22,63,40,ronfard_2021,22,shoe,shoe,car,car-shoe,shoe,distractor,0,58,0,0.47413793103448276,NA,0,NA,NA,0,NA,NA,NA,-3,distractor
40_40_ronfard_2021_22,65,40,ronfard_2021,22,book,book,ball,ball-book,book,distractor,21,33,0.3888888888888889,NA,1,1,NA,940,1,700,700,700,-3,distractor
41_41_ronfard_2021_24,1,41,ronfard_2021,24,dog,dog,cat,cat-dog,dog,distractor,21,26,0.44680851063829785,0.5201149425287357,1,1,NA,190,1,700,700,700,-1,distractor
41_41_ronfard_2021_24,4,41,ronfard_2021,24,shoe,shoe,car,car-shoe,shoe,distractor,43,9,0.8269230769230769,0.7241379310344828,1,1,NA,390,1,1433.3333333333335,1433.3333333333335,1433.3333333333335,-1,distractor
41_41_ronfard_2021_24,5,41,ronfard_2021,24,book,book,ball,ball-book,book,distractor,33,21,0.6111111111111112,0.5603448275862069,1,1,NA,640,1,1100,1100,1100,-1,distractor
41_41_ronfard_2021_24,12,41,ronfard_2021,24,cat,cat,dog,cat-dog,cat,distractor,51,3,0.9444444444444444,0.5660919540229885,1,1,NA,190,0,1700.0000000000002,1700.0000000000002,1700.0000000000002,-1,distractor
41_41_ronfard_2021_24,13,41,ronfard_2021,24,baby,baby,birdie,baby-birdie,baby,distractor,55,0,1,0.8448275862068966,1,1,NA,90,0,1833.3333333333335,1833.3333333333335,1833.3333333333335,-1,distractor
41_41_ronfard_2021_24,20,41,ronfard_2021,24,birdie,birdie,baby,baby-birdie,birdie,distractor,53,1,0.9814814814814815,0.8362068965517241,1,1,NA,140,0,1766.6666666666667,1766.6666666666667,1766.6666666666667,-1,distractor
41_41_ronfard_2021_24,23,41,ronfard_2021,24,car,car,shoe,car-shoe,car,distractor,53,1,0.9814814814814815,0.7586206896551725,1,1,NA,140,0,1766.6666666666667,1766.6666666666667,1766.6666666666667,-1,distractor
41_41_ronfard_2021_24,27,41,ronfard_2021,24,ball,ball,book,ball-book,ball,distractor,50,5,0.9090909090909091,0.5718390804597702,1,1,NA,215,1,1666.6666666666667,1666.6666666666667,1666.6666666666667,-1,distractor
41_41_ronfard_2021_24,28,41,ronfard_2021,24,birdie,birdie,baby,baby-birdie,birdie,distractor,49,5,0.9074074074074074,0.8362068965517241,1,1,NA,240,1,1633.3333333333335,1633.3333333333335,1633.3333333333335,-1,distractor
41_41_ronfard_2021_24,30,41,ronfard_2021,24,dog,dog,cat,cat-dog,dog,distractor,51,1,0.9807692307692307,0.5201149425287357,1,1,NA,190,0,1700.0000000000002,1700.0000000000002,1700.0000000000002,-1,distractor
41_41_ronfard_2021_24,37,41,ronfard_2021,24,dog,dog,cat,cat-dog,dog,distractor,47,8,0.8545454545454545,0.5201149425287357,1,1,NA,290,1,1566.6666666666667,1566.6666666666667,1566.6666666666667,-1,distractor
41_41_ronfard_2021_24,39,41,ronfard_2021,24,ball,ball,book,ball-book,ball,distractor,54,1,0.9818181818181818,0.5718390804597702,1,1,NA,115,0,1800.0000000000002,1800.0000000000002,1800.0000000000002,-1,distractor
41_41_ronfard_2021_24,46,41,ronfard_2021,24,ball,ball,book,ball-book,ball,distractor,45,9,0.8333333333333334,0.5718390804597702,1,1,NA,340,1,1500,1500,1500,-1,distractor
41_41_ronfard_2021_24,49,41,ronfard_2021,24,cat,cat,dog,cat-dog,cat,distractor,38,16,0.7037037037037037,0.5660919540229885,1,1,NA,515,1,1266.6666666666667,1266.6666666666667,1266.6666666666667,-1,distractor
41_41_ronfard_2021_24,51,41,ronfard_2021,24,baby,baby,birdie,baby-birdie,baby,distractor,49,5,0.9074074074074074,0.8448275862068966,1,1,NA,240,1,1633.3333333333335,1633.3333333333335,1633.3333333333335,-1,distractor
41_41_ronfard_2021_24,61,41,ronfard_2021,24,book,book,ball,ball-book,book,distractor,42,12,0.7777777777777778,0.5603448275862069,1,1,NA,415,1,1400,1400,1400,-1,distractor
42_42_ronfard_2021_18,1,42,ronfard_2021,18,dog,dog,cat,cat-dog,dog,distractor,49,7,0.875,0.7241379310344828,1,1,NA,240,1,1633.3333333333335,1633.3333333333335,1633.3333333333335,-7,distractor
42_42_ronfard_2021_18,8,42,ronfard_2021,18,cat,cat,dog,cat-dog,cat,distractor,45,9,0.8333333333333334,0.689655172413793,1,1,NA,340,1,1500,1500,1500,-7,distractor
42_42_ronfard_2021_18,10,42,ronfard_2021,18,baby,baby,birdie,baby-birdie,baby,distractor,37,17,0.6851851851851852,0.051724137931034475,1,1,NA,540,1,1233.3333333333335,1233.3333333333335,1233.3333333333335,-7,distractor
42_42_ronfard_2021_18,17,42,ronfard_2021,18,car,car,shoe,car-shoe,car,distractor,42,13,0.7636363636363637,0.3879310344827586,1,1,NA,415,1,1400,1400,1400,-7,distractor
42_42_ronfard_2021_18,19,42,ronfard_2021,18,baby,baby,birdie,baby-birdie,baby,distractor,39,16,0.7090909090909091,0.051724137931034475,1,1,NA,490,1,1300,1300,1300,-7,distractor
42_42_ronfard_2021_18,26,42,ronfard_2021,18,car,car,shoe,car-shoe,car,distractor,37,17,0.6851851851851852,0.3879310344827586,1,1,NA,540,1,1233.3333333333335,1233.3333333333335,1233.3333333333335,-7,distractor
42_42_ronfard_2021_18,37,42,ronfard_2021,18,birdie,birdie,baby,baby-birdie,birdie,distractor,42,13,0.7636363636363637,0.08620689655172414,1,1,NA,415,1,1400,1400,1400,-7,distractor
42_42_ronfard_2021_18,45,42,ronfard_2021,18,birdie,birdie,baby,baby-birdie,birdie,distractor,1,57,0.017241379310344827,0.08620689655172414,NA,1,NA,1440,0,NA,NA,NA,-7,distractor
42_42_ronfard_2021_18,49,42,ronfard_2021,18,cat,cat,dog,cat-dog,cat,distractor,49,5,0.9074074074074074,0.689655172413793,1,1,NA,240,1,1633.3333333333335,1633.3333333333335,1633.3333333333335,-7,distractor
42_42_ronfard_2021_18,51,42,ronfard_2021,18,shoe,shoe,car,car-shoe,shoe,distractor,38,17,0.6909090909090909,0.396551724137931,1,1,NA,515,1,1266.6666666666667,1266.6666666666667,1266.6666666666667,-7,distractor
42_42_ronfard_2021_18,53,42,ronfard_2021,18,book,book,ball,ball-book,book,distractor,22,33,0.4,NA,1,1,NA,915,1,733.3333333333334,733.3333333333334,733.3333333333334,-7,distractor
42_42_ronfard_2021_18,65,42,ronfard_2021,18,book,book,ball,ball-book,book,distractor,34,20,0.6296296296296297,NA,1,1,NA,615,1,1133.3333333333335,1133.3333333333335,1133.3333333333335,-7,distractor
43_43_ronfard_2021_18,1,43,ronfard_2021,18,baby,baby,birdie,baby-birdie,baby,distractor,35,20,0.6363636363636364,-0.3275862068965517,1,1,NA,590,1,1166.6666666666667,1166.6666666666667,1166.6666666666667,-7,distractor
43_43_ronfard_2021_18,10,43,ronfard_2021,18,shoe,shoe,car,car-shoe,shoe,distractor,53,1,0.9814814814814815,0.5459770114942528,1,1,NA,140,0,1766.6666666666667,1766.6666666666667,1766.6666666666667,-7,distractor
43_43_ronfard_2021_18,12,43,ronfard_2021,18,baby,baby,birdie,baby-birdie,baby,distractor,43,12,0.7818181818181819,-0.3275862068965517,1,1,NA,390,1,1433.3333333333335,1433.3333333333335,1433.3333333333335,-7,distractor
43_43_ronfard_2021_18,14,43,ronfard_2021,18,cat,cat,dog,cat-dog,cat,distractor,55,0,1,0.7241379310344828,1,1,NA,90,0,1833.3333333333335,1833.3333333333335,1833.3333333333335,-7,distractor
43_43_ronfard_2021_18,22,43,ronfard_2021,18,birdie,birdie,baby,baby-birdie,birdie,distractor,0,58,0,-0.27586206896551724,NA,0,NA,NA,0,NA,NA,NA,-7,distractor
43_43_ronfard_2021_18,25,43,ronfard_2021,18,car,car,shoe,car-shoe,car,distractor,37,19,0.6607142857142857,0.5632183908045977,1,1,NA,540,1,1233.3333333333335,1233.3333333333335,1233.3333333333335,-7,distractor
43_43_ronfard_2021_18,29,43,ronfard_2021,18,ball,ball,book,ball-book,ball,distractor,27,28,0.4909090909090909,NA,1,1,NA,790,1,900.0000000000001,900.0000000000001,900.0000000000001,-7,distractor
43_43_ronfard_2021_18,32,43,ronfard_2021,18,dog,dog,cat,cat-dog,dog,distractor,41,13,0.7592592592592593,0.7068965517241379,1,1,NA,440,1,1366.6666666666667,1366.6666666666667,1366.6666666666667,-7,distractor
43_43_ronfard_2021_18,35,43,ronfard_2021,18,car,car,shoe,car-shoe,car,distractor,45,11,0.8035714285714286,0.5632183908045977,1,1,NA,340,1,1500,1500,1500,-7,distractor
43_43_ronfard_2021_18,36,43,ronfard_2021,18,shoe,shoe,car,car-shoe,shoe,distractor,37,19,0.6607142857142857,0.5459770114942528,1,1,NA,540,1,1233.3333333333335,1233.3333333333335,1233.3333333333335,-7,distractor
43_43_ronfard_2021_18,62,43,ronfard_2021,18,car,car,shoe,car-shoe,car,distractor,55,0,1,0.5632183908045977,1,1,NA,90,0,1833.3333333333335,1833.3333333333335,1833.3333333333335,-7,distractor
43_43_ronfard_2021_18,67,43,ronfard_2021,18,shoe,shoe,car,car-shoe,shoe,distractor,35,19,0.6481481481481481,0.5459770114942528,1,1,NA,590,1,1166.6666666666667,1166.6666666666667,1166.6666666666667,-7,distractor
45_45_ronfard_2021_18,1,45,ronfard_2021,18,car,car,shoe,car-shoe,car,distractor,47,7,0.8703703703703703,0.603448275862069,1,1,NA,290,1,1566.6666666666667,1566.6666666666667,1566.6666666666667,-7,distractor
45_45_ronfard_2021_18,6,45,ronfard_2021,18,cat,cat,dog,cat-dog,cat,distractor,38,5,0.8837209302325582,0.5057471264367817,1,1,NA,190,0,1266.6666666666667,1266.6666666666667,1266.6666666666667,-7,distractor
45_45_ronfard_2021_18,13,45,ronfard_2021,18,birdie,birdie,baby,baby-birdie,birdie,distractor,47,8,0.8545454545454545,0.3563218390804598,1,1,NA,290,1,1566.6666666666667,1566.6666666666667,1566.6666666666667,-7,distractor
45_45_ronfard_2021_18,14,45,ronfard_2021,18,ball,ball,book,ball-book,ball,distractor,31,24,0.5636363636363636,NA,1,1,NA,690,1,1033.3333333333335,1033.3333333333335,1033.3333333333335,-7,distractor
45_45_ronfard_2021_18,17,45,ronfard_2021,18,baby,baby,birdie,baby-birdie,baby,distractor,25,26,0.49019607843137253,0.29310344827586204,1,1,NA,290,2,833.3333333333334,833.3333333333334,833.3333333333334,-7,distractor
45_45_ronfard_2021_18,30,45,ronfard_2021,18,ball,ball,book,ball-book,ball,distractor,31,23,0.5740740740740741,NA,1,1,NA,690,1,1033.3333333333335,1033.3333333333335,1033.3333333333335,-7,distractor
45_45_ronfard_2021_18,34,45,ronfard_2021,18,ball,ball,book,ball-book,ball,distractor,43,11,0.7962962962962963,NA,1,1,NA,390,1,1433.3333333333335,1433.3333333333335,1433.3333333333335,-7,distractor
45_45_ronfard_2021_18,37,45,ronfard_2021,18,dog,dog,cat,cat-dog,dog,distractor,42,13,0.7636363636363637,0.5488505747126436,1,1,NA,415,1,1400,1400,1400,-7,distractor
45_45_ronfard_2021_18,39,45,ronfard_2021,18,birdie,birdie,baby,baby-birdie,birdie,distractor,47,8,0.8545454545454545,0.3563218390804598,1,1,NA,290,1,1566.6666666666667,1566.6666666666667,1566.6666666666667,-7,distractor
45_45_ronfard_2021_18,43,45,ronfard_2021,18,birdie,birdie,baby,baby-birdie,birdie,distractor,46,8,0.8518518518518519,0.3563218390804598,1,1,NA,315,1,1533.3333333333335,1533.3333333333335,1533.3333333333335,-7,distractor
45_45_ronfard_2021_18,46,45,ronfard_2021,18,car,car,shoe,car-shoe,car,distractor,47,8,0.8545454545454545,0.603448275862069,1,1,NA,290,1,1566.6666666666667,1566.6666666666667,1566.6666666666667,-7,distractor
45_45_ronfard_2021_18,47,45,ronfard_2021,18,cat,cat,dog,cat-dog,cat,distractor,45,8,0.8490566037735849,0.5057471264367817,1,1,NA,340,1,1500,1500,1500,-7,distractor
45_45_ronfard_2021_18,49,45,ronfard_2021,18,shoe,shoe,car,car-shoe,shoe,distractor,43,12,0.7818181818181819,0.6120689655172414,1,1,NA,390,1,1433.3333333333335,1433.3333333333335,1433.3333333333335,-7,distractor
45_45_ronfard_2021_18,52,45,ronfard_2021,18,cat,cat,dog,cat-dog,cat,distractor,53,1,0.9814814814814815,0.5057471264367817,1,1,NA,140,0,1766.6666666666667,1766.6666666666667,1766.6666666666667,-7,distractor
45_45_ronfard_2021_18,58,45,ronfard_2021,18,dog,dog,cat,cat-dog,dog,distractor,31,19,0.62,0.5488505747126436,1,1,NA,690,1,1033.3333333333335,1033.3333333333335,1033.3333333333335,-7,distractor
46_46_ronfard_2021_22,4,46,ronfard_2021,22,book,book,ball,ball-book,book,distractor,38,17,0.6909090909090909,0.3620689655172414,1,1,NA,515,1,1266.6666666666667,1266.6666666666667,1266.6666666666667,-3,distractor
46_46_ronfard_2021_22,7,46,ronfard_2021,22,shoe,shoe,car,car-shoe,shoe,distractor,45,7,0.8653846153846154,NA,1,1,NA,190,0,1500,1500,1500,-3,distractor
46_46_ronfard_2021_22,8,46,ronfard_2021,22,cat,cat,dog,cat-dog,cat,distractor,58,0,1,0.15517241379310343,1,1,NA,15,0,1933.3333333333335,1933.3333333333335,1933.3333333333335,-3,distractor
46_46_ronfard_2021_22,10,46,ronfard_2021,22,baby,baby,birdie,baby-birdie,baby,distractor,27,8,0.7714285714285715,0.3448275862068965,1,1,NA,290,1,833.3333333333334,833.3333333333334,833.3333333333334,-3,distractor
46_46_ronfard_2021_22,16,46,ronfard_2021,22,ball,ball,book,ball-book,ball,distractor,37,17,0.6851851851851852,0.34482758620689663,1,1,NA,540,1,1233.3333333333335,1233.3333333333335,1233.3333333333335,-3,distractor
46_46_ronfard_2021_22,39,46,ronfard_2021,22,dog,dog,cat,cat-dog,dog,distractor,3,49,0.057692307692307696,0.05172413793103448,NA,1,NA,1390,0,NA,NA,NA,-3,distractor
46_46_ronfard_2021_22,41,46,ronfard_2021,22,birdie,birdie,baby,baby-birdie,birdie,distractor,41,15,0.7321428571428571,0.5344827586206896,1,1,NA,440,1,1366.6666666666667,1366.6666666666667,1366.6666666666667,-3,distractor
46_46_ronfard_2021_22,58,46,ronfard_2021,22,baby,baby,birdie,baby-birdie,baby,distractor,43,12,0.7818181818181819,0.3448275862068965,1,1,NA,390,1,1433.3333333333335,1433.3333333333335,1433.3333333333335,-3,distractor
47_47_ronfard_2021_20,27,47,ronfard_2021,20,shoe,shoe,car,car-shoe,shoe,distractor,30,24,0.5555555555555556,NA,1,1,NA,715,1,1000.0000000000001,1000.0000000000001,1000.0000000000001,-5,distractor
47_47_ronfard_2021_20,37,47,ronfard_2021,20,birdie,birdie,baby,baby-birdie,birdie,distractor,42,13,0.7636363636363637,-0.18965517241379315,1,1,NA,415,1,1400,1400,1400,-5,distractor
47_47_ronfard_2021_20,41,47,ronfard_2021,20,birdie,birdie,baby,baby-birdie,birdie,distractor,52,0,1,-0.18965517241379315,2,1,NA,40,0,866.6666666666667,1300,1300,-5,distractor
47_47_ronfard_2021_20,49,47,ronfard_2021,20,cat,cat,dog,cat-dog,cat,distractor,0,58,0,-0.017241379310344827,NA,0,NA,NA,0,NA,NA,NA,-5,distractor
47_47_ronfard_2021_20,51,47,ronfard_2021,20,shoe,shoe,car,car-shoe,shoe,distractor,0,58,0,NA,NA,0,NA,NA,0,NA,NA,NA,-5,distractor
47_47_ronfard_2021_20,54,47,ronfard_2021,20,cat,cat,dog,cat-dog,cat,distractor,0,58,0,-0.017241379310344827,NA,0,NA,NA,0,NA,NA,NA,-5,distractor
47_47_ronfard_2021_20,55,47,ronfard_2021,20,baby,baby,birdie,baby-birdie,baby,distractor,0,58,0,-0.11206896551724138,NA,0,NA,NA,0,NA,NA,NA,-5,distractor
47_47_ronfard_2021_20,60,47,ronfard_2021,20,dog,dog,cat,cat-dog,dog,distractor,54,1,0.9818181818181818,-0.06896551724137934,1,1,NA,115,0,1800.0000000000002,1800.0000000000002,1800.0000000000002,-5,distractor
48_48_ronfard_2021_22,1,48,ronfard_2021,22,dog,dog,cat,cat-dog,dog,distractor,3,44,0.06382978723404255,-0.9482758620689655,NA,1,NA,1390,0,NA,NA,NA,-3,distractor
48_48_ronfard_2021_22,4,48,ronfard_2021,22,book,book,ball,ball-book,book,distractor,33,21,0.6111111111111112,0.48275862068965514,1,1,NA,640,1,1100,1100,1100,-3,distractor
48_48_ronfard_2021_22,7,48,ronfard_2021,22,shoe,shoe,car,car-shoe,shoe,distractor,42,12,0.7777777777777778,0.7241379310344828,1,1,NA,415,1,1400,1400,1400,-3,distractor
48_48_ronfard_2021_22,15,48,ronfard_2021,22,birdie,birdie,baby,baby-birdie,birdie,distractor,49,4,0.9245283018867925,NA,1,1,NA,215,1,1633.3333333333335,1633.3333333333335,1633.3333333333335,-3,distractor
48_48_ronfard_2021_22,16,48,ronfard_2021,22,ball,ball,book,ball-book,ball,distractor,32,13,0.7111111111111111,0.3275862068965517,1,1,NA,290,1,1066.6666666666667,1066.6666666666667,1066.6666666666667,-3,distractor
48_48_ronfard_2021_22,22,48,ronfard_2021,22,book,book,ball,ball-book,book,distractor,49,5,0.9074074074074074,0.48275862068965514,1,1,NA,240,1,1633.3333333333335,1633.3333333333335,1633.3333333333335,-3,distractor
48_48_ronfard_2021_22,26,48,ronfard_2021,22,car,car,shoe,car-shoe,car,distractor,58,0,1,0.7931034482758621,1,1,NA,15,0,1933.3333333333335,1933.3333333333335,1933.3333333333335,-3,distractor
48_48_ronfard_2021_22,49,48,ronfard_2021,22,cat,cat,dog,cat-dog,cat,distractor,0,58,0,-0.7586206896551724,NA,0,NA,NA,0,NA,NA,NA,-3,distractor
49_49_ronfard_2021_19,8,49,ronfard_2021,19,shoe,shoe,car,car-shoe,shoe,distractor,33,13,0.717391304347826,0.20689655172413796,1,1,NA,640,1,1100,1100,1100,-6,distractor
49_49_ronfard_2021_19,24,49,ronfard_2021,19,cat,cat,dog,cat-dog,cat,distractor,37,19,0.6607142857142857,0.5517241379310345,1,1,NA,540,1,1233.3333333333335,1233.3333333333335,1233.3333333333335,-6,distractor
49_49_ronfard_2021_19,28,49,ronfard_2021,19,birdie,birdie,baby,baby-birdie,birdie,distractor,33,18,0.6470588235294118,NA,1,1,NA,290,2,1100,1100,1100,-6,distractor
49_49_ronfard_2021_19,30,49,ronfard_2021,19,dog,dog,cat,cat-dog,dog,distractor,50,5,0.9090909090909091,0.6982758620689655,1,1,NA,215,1,1666.6666666666667,1666.6666666666667,1666.6666666666667,-6,distractor
49_49_ronfard_2021_19,49,49,ronfard_2021,19,cat,cat,dog,cat-dog,cat,distractor,37,0,1,0.5517241379310345,1,1,NA,15,0,1233.3333333333335,1233.3333333333335,1233.3333333333335,-6,distractor
49_49_ronfard_2021_19,60,49,ronfard_2021,19,car,car,shoe,car-shoe,car,distractor,32,21,0.6037735849056604,0.3275862068965517,1,1,NA,240,2,1066.6666666666667,1066.6666666666667,1066.6666666666667,-6,distractor
50_50_ronfard_2021_18,2,50,ronfard_2021,18,book,book,ball,ball-book,book,distractor,13,41,0.24074074074074073,-0.13793103448275862,1,1,NA,1140,1,433.33333333333337,433.33333333333337,433.33333333333337,-7,distractor
50_50_ronfard_2021_18,7,50,ronfard_2021,18,baby,baby,birdie,baby-birdie,baby,distractor,18,36,0.3333333333333333,-0.471264367816092,1,1,NA,1015,1,600,600,600,-7,distractor
50_50_ronfard_2021_18,9,50,ronfard_2021,18,cat,cat,dog,cat-dog,cat,distractor,33,21,0.6111111111111112,-0.13793103448275856,1,1,NA,640,1,1100,1100,1100,-7,distractor
50_50_ronfard_2021_18,14,50,ronfard_2021,18,cat,cat,dog,cat-dog,cat,distractor,33,21,0.6111111111111112,-0.13793103448275856,1,1,NA,640,1,1100,1100,1100,-7,distractor
50_50_ronfard_2021_18,17,50,ronfard_2021,18,birdie,birdie,baby,baby-birdie,birdie,distractor,34,20,0.6296296296296297,-0.4252873563218391,1,1,NA,615,1,1133.3333333333335,1133.3333333333335,1133.3333333333335,-7,distractor
50_50_ronfard_2021_18,24,50,ronfard_2021,18,ball,ball,book,ball-book,ball,distractor,22,28,0.44,-0.2068965517241379,1,1,NA,590,2,733.3333333333334,733.3333333333334,733.3333333333334,-7,distractor
50_50_ronfard_2021_18,27,50,ronfard_2021,18,dog,dog,cat,cat-dog,dog,distractor,11,41,0.21153846153846154,-0.1724137931034483,1,1,NA,1190,1,366.6666666666667,366.6666666666667,366.6666666666667,-7,distractor
50_50_ronfard_2021_18,29,50,ronfard_2021,18,birdie,birdie,baby,baby-birdie,birdie,distractor,0,58,0,-0.4252873563218391,NA,0,NA,NA,0,NA,NA,NA,-7,distractor
50_50_ronfard_2021_18,31,50,ronfard_2021,18,shoe,shoe,car,car-shoe,shoe,distractor,27,28,0.4909090909090909,NA,1,1,NA,790,1,900.0000000000001,900.0000000000001,900.0000000000001,-7,distractor
50_50_ronfard_2021_18,42,50,ronfard_2021,18,book,book,ball,ball-book,book,distractor,0,58,0,-0.13793103448275862,NA,0,NA,NA,0,NA,NA,NA,-7,distractor
50_50_ronfard_2021_18,43,50,ronfard_2021,18,ball,ball,book,ball-book,ball,distractor,53,1,0.9814814814814815,-0.2068965517241379,1,1,NA,140,0,1766.6666666666667,1766.6666666666667,1766.6666666666667,-7,distractor
50_50_ronfard_2021_18,52,50,ronfard_2021,18,birdie,birdie,baby,baby-birdie,birdie,distractor,0,58,0,-0.4252873563218391,NA,0,NA,NA,0,NA,NA,NA,-7,distractor
51_51_ronfard_2021_21,2,51,ronfard_2021,21,book,book,ball,ball-book,book,distractor,31,23,0.5740740740740741,0.07758620689655166,1,1,NA,690,1,1033.3333333333335,1033.3333333333335,1033.3333333333335,-4,distractor
51_51_ronfard_2021_21,13,51,ronfard_2021,21,birdie,birdie,baby,baby-birdie,birdie,distractor,45,3,0.9375,0.5402298850574713,1,1,NA,340,1,1500,1500,1500,-4,distractor
51_51_ronfard_2021_21,14,51,ronfard_2021,21,ball,ball,book,ball-book,ball,distractor,30,24,0.5555555555555556,0.08620689655172414,1,1,NA,715,1,1000.0000000000001,1000.0000000000001,1000.0000000000001,-4,distractor
51_51_ronfard_2021_21,21,51,ronfard_2021,21,ball,ball,book,ball-book,ball,distractor,26,29,0.4727272727272727,0.08620689655172414,1,1,NA,815,1,866.6666666666667,866.6666666666667,866.6666666666667,-4,distractor
51_51_ronfard_2021_21,24,51,ronfard_2021,21,car,car,shoe,car-shoe,car,distractor,41,13,0.7592592592592593,0.43103448275862066,1,1,NA,440,1,1366.6666666666667,1366.6666666666667,1366.6666666666667,-4,distractor
51_51_ronfard_2021_21,39,51,ronfard_2021,21,birdie,birdie,baby,baby-birdie,birdie,distractor,39,15,0.7222222222222222,0.5402298850574713,1,1,NA,490,1,1300,1300,1300,-4,distractor
51_51_ronfard_2021_21,41,51,ronfard_2021,21,cat,cat,dog,cat-dog,cat,distractor,45,11,0.8035714285714286,NA,1,1,NA,340,1,1500,1500,1500,-4,distractor
51_51_ronfard_2021_21,43,51,ronfard_2021,21,birdie,birdie,baby,baby-birdie,birdie,distractor,49,5,0.9074074074074074,0.5402298850574713,1,1,NA,240,1,1633.3333333333335,1633.3333333333335,1633.3333333333335,-4,distractor
51_51_ronfard_2021_21,53,51,ronfard_2021,21,baby,baby,birdie,baby-birdie,baby,distractor,42,13,0.7636363636363637,0.5919540229885057,1,1,NA,415,1,1400,1400,1400,-4,distractor
51_51_ronfard_2021_21,61,51,ronfard_2021,21,shoe,shoe,car,car-shoe,shoe,distractor,39,16,0.7090909090909091,0.4482758620689655,1,1,NA,490,1,1300,1300,1300,-4,distractor
53_53_ronfard_2021_23,1,53,ronfard_2021,23,baby,baby,birdie,baby-birdie,baby,distractor,3,51,0.05555555555555555,NA,NA,1,NA,1390,0,NA,NA,NA,-2,distractor
