recording_name,trial_number,target_word,age_months,subject_id,media_name,initial_look,samples_target,samples_distractor,prop_looking,prop_looking_diff,number_fixations,correct_shift,remain_on_target,latency_to_switch,total_aoi_switches,duration_of_look,first_look_dur,longest_look_by_trial,age_months_centred
0_casillas_tseltal_2015_14,6,nichim,14,0,flower,target,106,0,1,NA,1,NA,1,NA,0,1766.6666666666667,1766.6666666666667,4240,-11
0_casillas_tseltal_2015_14,8,mut,14,0,chicken,target,106,0,1,NA,1,NA,1,NA,0,1766.6666666666667,1766.6666666666667,4240,-11
0_casillas_tseltal_2015_14,9,k'ajk',14,0,fire,target,13,93,0.12264150943396226,NA,1,NA,0,NA,1,216.66666666666669,216.66666666666669,520,-11
0_casillas_tseltal_2015_14,10,mexa,14,0,table,target,106,0,1,NA,1,NA,1,NA,0,1766.6666666666667,1766.6666666666667,4240,-11
0_casillas_tseltal_2015_14,13,ixim,14,0,corn,target,96,8,0.9230769230769231,NA,2,NA,0,NA,0,800,666.6666666666667,2240,-11
0_casillas_tseltal_2015_14,14,karo,14,0,car,target,106,0,1,NA,1,NA,1,NA,0,1766.6666666666667,1766.6666666666667,4240,-11
0_casillas_tseltal_2015_14,16,te,14,0,tree,target,16,88,0.15384615384615385,NA,1,NA,0,NA,1,266.6666666666667,266.6666666666667,640,-11
0_casillas_tseltal_2015_14,17,waybal,14,0,bed,target,106,0,1,NA,1,NA,1,NA,0,1766.6666666666667,1766.6666666666667,4240,-11
0_casillas_tseltal_2015_14,19,lo'bal,14,0,banana,target,35,69,0.33653846153846156,NA,1,NA,0,NA,1,583.3333333333334,583.3333333333334,1400,-11
0_casillas_tseltal_2015_14,20,chenek',14,0,bean,target,70,34,0.6730769230769231,NA,1,NA,1,NA,1,1166.6666666666667,1166.6666666666667,2800,-11
0_casillas_tseltal_2015_14,23,p'in,14,0,pot-tseltal,target,106,0,1,NA,1,NA,1,NA,0,1766.6666666666667,1766.6666666666667,4240,-11
0_casillas_tseltal_2015_14,24,tzek',14,0,skirt-tseltal,target,106,0,1,NA,1,NA,1,NA,0,1766.6666666666667,1766.6666666666667,4240,-11
0_casillas_tseltal_2015_14,25,ich,14,0,chile,target,38,66,0.36538461538461536,NA,1,NA,0,NA,1,633.3333333333334,633.3333333333334,1520,-11
0_casillas_tseltal_2015_14,26,xila,14,0,chair,target,40,64,0.38461538461538464,NA,1,NA,0,NA,1,666.6666666666667,666.6666666666667,1600,-11
1_casillas_tseltal_2015_22,1,wa,22,1,tortilla,target,70,35,0.6666666666666666,NA,2,NA,0,NA,2,583.3333333333334,300,2080,-3
1_casillas_tseltal_2015_22,3,pelota,22,1,ball,target,106,0,1,NA,1,NA,1,NA,0,1766.6666666666667,1766.6666666666667,4240,-3
1_casillas_tseltal_2015_22,4,chojak',22,1,purse-tseltal,target,27,76,0.2621359223300971,NA,1,NA,0,NA,1,450.00000000000006,450.00000000000006,1080,-3
1_casillas_tseltal_2015_22,6,nichim,22,1,flower,target,64,40,0.6153846153846154,NA,1,NA,1,NA,1,1066.6666666666667,1066.6666666666667,2560,-3
1_casillas_tseltal_2015_22,9,k'ajk',22,1,fire,target,106,0,1,NA,1,NA,1,NA,0,1766.6666666666667,1766.6666666666667,4240,-3
1_casillas_tseltal_2015_22,14,karo,22,1,car,target,77,24,0.7623762376237624,NA,2,NA,0,NA,2,641.6666666666667,400,2120,-3
1_casillas_tseltal_2015_22,19,lo'bal,22,1,banana,target,106,0,1,NA,1,NA,1,NA,0,1766.6666666666667,1766.6666666666667,4240,-3
1_casillas_tseltal_2015_22,21,tz'i,22,1,dog,target,106,0,1,NA,1,NA,1,NA,0,1766.6666666666667,1766.6666666666667,4240,-3
1_casillas_tseltal_2015_22,23,p'in,22,1,pot-tseltal,target,41,58,0.41414141414141414,NA,1,NA,0,NA,1,516.6666666666667,516.6666666666667,1240,-3
1_casillas_tseltal_2015_22,24,tzek',22,1,skirt-tseltal,target,106,0,1,NA,1,NA,1,NA,0,1766.6666666666667,1766.6666666666667,4240,-3
1_casillas_tseltal_2015_22,27,mes,22,1,broom,target,40,64,0.38461538461538464,NA,1,NA,0,NA,1,666.6666666666667,666.6666666666667,1600,-3
2_casillas_tseltal_2015_45,1,wa,45,2,tortilla,target,37,55,0.40217391304347827,NA,1,NA,0,NA,3,266.6666666666667,266.6666666666667,640,20
2_casillas_tseltal_2015_45,3,pelota,45,2,ball,target,74,17,0.8131868131868132,NA,2,NA,1,NA,2,616.6666666666667,933.3333333333334,2240,20
2_casillas_tseltal_2015_45,6,nichim,45,2,flower,target,85,17,0.8333333333333334,NA,2,NA,1,NA,2,708.3333333333335,900.0000000000001,2160,20
2_casillas_tseltal_2015_45,8,mut,45,2,chicken,target,62,38,0.62,NA,2,NA,0,NA,2,516.6666666666667,633.3333333333334,1520,20
2_casillas_tseltal_2015_45,10,mexa,45,2,table,target,82,16,0.8367346938775511,NA,1,NA,0,NA,0,1366.6666666666667,1366.6666666666667,3280,20
2_casillas_tseltal_2015_45,11,xawin,45,2,cat,target,46,50,0.4791666666666667,NA,2,NA,0,NA,2,383.33333333333337,416.6666666666667,1000,20
2_casillas_tseltal_2015_45,12,ja',45,2,water,target,44,60,0.4230769230769231,NA,2,NA,0,NA,3,366.6666666666667,300,1040,20
2_casillas_tseltal_2015_45,14,karo,45,2,car,target,75,24,0.7575757575757576,NA,1,NA,1,NA,1,1116.6666666666667,1116.6666666666667,2680,20
2_casillas_tseltal_2015_45,15,na,45,2,house,target,106,0,1,NA,1,NA,1,NA,0,1766.6666666666667,1766.6666666666667,4240,20
2_casillas_tseltal_2015_45,17,waybal,45,2,bed,target,106,0,1,NA,1,NA,1,NA,0,1766.6666666666667,1766.6666666666667,4240,20
2_casillas_tseltal_2015_45,18,t'inel,45,2,doorway,target,78,24,0.7647058823529411,NA,2,NA,1,NA,2,650,1100,2640,20
2_casillas_tseltal_2015_45,20,chenek',45,2,bean,target,91,13,0.875,NA,1,NA,0,NA,1,1333.3333333333335,1333.3333333333335,3200,20
2_casillas_tseltal_2015_45,21,tz'i,45,2,dog,target,56,45,0.5544554455445545,NA,2,NA,0,NA,2,466.66666666666674,366.6666666666667,1360,20
2_casillas_tseltal_2015_45,23,p'in,45,2,pot-tseltal,target,94,10,0.9038461538461539,NA,1,NA,1,NA,0,1566.6666666666667,1566.6666666666667,3760,20
2_casillas_tseltal_2015_45,24,tzek',45,2,skirt-tseltal,target,64,36,0.64,NA,1,NA,0,NA,2,1066.6666666666667,1066.6666666666667,2560,20
2_casillas_tseltal_2015_45,27,mes,45,2,broom,target,50,49,0.5050505050505051,NA,2,NA,0,NA,2,416.66666666666674,316.6666666666667,1240,20
2_casillas_tseltal_2015_45,28,machit,45,2,machete,target,94,10,0.9038461538461539,NA,1,NA,1,NA,0,1566.6666666666667,1566.6666666666667,3760,20
3_casillas_tseltal_2015_22,2,moch,22,3,basket-tseltal,target,106,0,1,NA,1,NA,1,NA,0,1766.6666666666667,1766.6666666666667,4240,-3
3_casillas_tseltal_2015_22,3,pelota,22,3,ball,target,74,28,0.7254901960784313,NA,2,NA,0,NA,2,616.6666666666667,533.3333333333334,1680,-3
3_casillas_tseltal_2015_22,6,nichim,22,3,flower,target,89,11,0.89,NA,2,NA,0,NA,0,741.6666666666667,566.6666666666667,2200,-3
3_casillas_tseltal_2015_22,8,mut,22,3,chicken,target,106,0,1,NA,1,NA,1,NA,0,1766.6666666666667,1766.6666666666667,4240,-3
3_casillas_tseltal_2015_22,9,k'ajk',22,3,fire,target,10,93,0.0970873786407767,NA,NA,NA,0,NA,0,NA,NA,NA,-3
3_casillas_tseltal_2015_22,10,mexa,22,3,table,target,106,0,1,NA,1,NA,1,NA,0,1766.6666666666667,1766.6666666666667,4240,-3
3_casillas_tseltal_2015_22,12,ja',22,3,water,target,98,0,1,NA,2,NA,1,NA,0,816.6666666666667,833.3333333333334,2000,-3
3_casillas_tseltal_2015_22,14,karo,22,3,car,target,106,0,1,NA,1,NA,1,NA,0,1766.6666666666667,1766.6666666666667,4240,-3
3_casillas_tseltal_2015_22,22,tomut,22,3,egg,target,24,73,0.24742268041237114,NA,1,NA,0,NA,2,266.6666666666667,266.6666666666667,640,-3
3_casillas_tseltal_2015_22,25,ich,22,3,chile,target,106,0,1,NA,1,NA,1,NA,0,1766.6666666666667,1766.6666666666667,4240,-3
3_casillas_tseltal_2015_22,26,xila,22,3,chair,target,106,0,1,NA,1,NA,1,NA,0,1766.6666666666667,1766.6666666666667,4240,-3
3_casillas_tseltal_2015_22,30,bojch,22,3,bowl-tseltal,target,68,35,0.6601941747572816,NA,2,NA,0,NA,3,566.6666666666667,266.6666666666667,2080,-3
4_casillas_tseltal_2015_45,3,pelota,45,4,ball,target,37,61,0.37755102040816324,NA,2,NA,0,NA,1,308.33333333333337,316.6666666666667,760,20
4_casillas_tseltal_2015_45,6,nichim,45,4,flower,target,70,29,0.7070707070707071,NA,2,NA,0,NA,3,583.3333333333334,233.33333333333334,2240,20
4_casillas_tseltal_2015_45,12,ja',45,4,water,target,42,63,0.4,NA,1,NA,0,NA,1,700,700,1680,20
4_casillas_tseltal_2015_45,14,karo,45,4,car,target,90,0,1,NA,1,NA,1,NA,0,1416.6666666666667,1416.6666666666667,3400,20
4_casillas_tseltal_2015_45,15,na,45,4,house,target,87,10,0.8969072164948454,NA,1,NA,0,NA,0,1200,1200,2880,20
4_casillas_tseltal_2015_45,21,tz'i,45,4,dog,target,70,30,0.7,NA,2,NA,0,NA,2,583.3333333333334,766.6666666666667,1840,20
4_casillas_tseltal_2015_45,25,ich,45,4,chile,target,83,21,0.7980769230769231,NA,1,NA,1,NA,1,1383.3333333333335,1383.3333333333335,3320,20
4_casillas_tseltal_2015_45,26,xila,45,4,chair,target,32,72,0.3076923076923077,NA,1,NA,0,NA,1,533.3333333333334,533.3333333333334,1280,20
4_casillas_tseltal_2015_45,28,machit,45,4,machete,target,22,82,0.21153846153846154,NA,1,NA,0,NA,1,366.6666666666667,366.6666666666667,880,20
4_casillas_tseltal_2015_45,29,si',45,4,firewood,target,96,8,0.9230769230769231,NA,1,NA,1,NA,0,1600,1600,3840,20
5_casillas_tseltal_2015_27,1,wa,27,5,tortilla,target,106,0,1,NA,1,NA,1,NA,0,1766.6666666666667,1766.6666666666667,4240,2
5_casillas_tseltal_2015_27,2,moch,27,5,basket-tseltal,target,50,53,0.4854368932038835,NA,2,NA,0,NA,2,416.66666666666674,616.6666666666667,1480,2
5_casillas_tseltal_2015_27,3,pelota,27,5,ball,target,106,0,1,NA,1,NA,1,NA,0,1766.6666666666667,1766.6666666666667,4240,2
5_casillas_tseltal_2015_27,6,nichim,27,5,flower,target,79,24,0.7669902912621359,NA,2,NA,0,NA,2,658.3333333333334,716.6666666666667,1720,2
5_casillas_tseltal_2015_27,11,xawin,27,5,cat,target,41,61,0.4019607843137255,NA,1,NA,0,NA,1,616.6666666666667,616.6666666666667,1480,2
5_casillas_tseltal_2015_27,12,ja',27,5,water,target,106,0,1,NA,1,NA,1,NA,0,1766.6666666666667,1766.6666666666667,4240,2
5_casillas_tseltal_2015_27,13,ixim,27,5,corn,target,26,76,0.2549019607843137,NA,1,NA,0,NA,1,433.33333333333337,433.33333333333337,1040,2
5_casillas_tseltal_2015_27,14,karo,27,5,car,target,82,23,0.780952380952381,NA,1,NA,1,NA,1,1366.6666666666667,1366.6666666666667,3280,2
5_casillas_tseltal_2015_27,15,na,27,5,house,target,53,52,0.5047619047619047,NA,1,NA,0,NA,1,883.3333333333334,883.3333333333334,2120,2
5_casillas_tseltal_2015_27,17,waybal,27,5,bed,target,37,68,0.3523809523809524,NA,1,NA,0,NA,1,616.6666666666667,616.6666666666667,1480,2
5_casillas_tseltal_2015_27,23,p'in,27,5,pot-tseltal,target,20,82,0.19607843137254902,NA,1,NA,0,NA,1,266.6666666666667,266.6666666666667,640,2
5_casillas_tseltal_2015_27,24,tzek',27,5,skirt-tseltal,target,45,57,0.4411764705882353,NA,2,NA,0,NA,3,375,350,960,2
5_casillas_tseltal_2015_27,25,ich,27,5,chile,target,58,45,0.5631067961165048,NA,2,NA,0,NA,2,483.33333333333337,700,1680,2
5_casillas_tseltal_2015_27,27,mes,27,5,broom,target,66,39,0.6285714285714286,NA,1,NA,1,NA,1,1100,1100,2640,2
5_casillas_tseltal_2015_27,29,si',27,5,firewood,target,46,41,0.5287356321839081,NA,2,NA,0,NA,2,383.33333333333337,500.00000000000006,1200,2
6_casillas_tseltal_2015_39,1,wa,39,6,tortilla,target,95,0,1,NA,1,NA,1,NA,0,1533.3333333333335,1533.3333333333335,3680,14
6_casillas_tseltal_2015_39,2,moch,39,6,basket-tseltal,target,103,0,1,NA,2,NA,1,NA,0,858.3333333333334,933.3333333333334,2240,14
6_casillas_tseltal_2015_39,3,pelota,39,6,ball,target,106,0,1,NA,1,NA,1,NA,0,1766.6666666666667,1766.6666666666667,4240,14
6_casillas_tseltal_2015_39,7,balti,39,6,bucket,target,98,5,0.9514563106796117,NA,1,NA,1,NA,0,1633.3333333333335,1633.3333333333335,3920,14
6_casillas_tseltal_2015_39,8,mut,39,6,chicken,target,106,0,1,NA,1,NA,1,NA,0,1766.6666666666667,1766.6666666666667,4240,14
6_casillas_tseltal_2015_39,9,k'ajk',39,6,fire,target,106,0,1,NA,1,NA,1,NA,0,1766.6666666666667,1766.6666666666667,4240,14
6_casillas_tseltal_2015_39,12,ja',39,6,water,target,51,53,0.49038461538461536,NA,1,NA,0,NA,1,850.0000000000001,850.0000000000001,2040,14
6_casillas_tseltal_2015_39,13,ixim,39,6,corn,target,106,0,1,NA,1,NA,1,NA,0,1766.6666666666667,1766.6666666666667,4240,14
6_casillas_tseltal_2015_39,15,na,39,6,house,target,13,92,0.12380952380952381,NA,1,NA,0,NA,1,216.66666666666669,216.66666666666669,520,14
6_casillas_tseltal_2015_39,19,lo'bal,39,6,banana,target,106,0,1,NA,1,NA,1,NA,0,1766.6666666666667,1766.6666666666667,4240,14
6_casillas_tseltal_2015_39,21,tz'i,39,6,dog,target,63,34,0.6494845360824743,NA,2,NA,0,NA,2,525,616.6666666666667,1480,14
6_casillas_tseltal_2015_39,26,xila,39,6,chair,target,102,0,1,NA,2,NA,1,NA,0,850.0000000000001,1433.3333333333335,3440,14
6_casillas_tseltal_2015_39,27,mes,39,6,broom,target,106,0,1,NA,1,NA,1,NA,0,1766.6666666666667,1766.6666666666667,4240,14
7_casillas_tseltal_2015_25,5,baso,25,7,cup,target,106,0,1,NA,1,NA,1,NA,0,1766.6666666666667,1766.6666666666667,4240,0
7_casillas_tseltal_2015_25,6,nichim,25,7,flower,target,106,0,1,NA,1,NA,1,NA,0,1766.6666666666667,1766.6666666666667,4240,0
7_casillas_tseltal_2015_25,10,mexa,25,7,table,target,85,21,0.8018867924528302,NA,1,NA,1,NA,1,1416.6666666666667,1416.6666666666667,3400,0
7_casillas_tseltal_2015_25,11,xawin,25,7,cat,target,106,0,1,NA,1,NA,1,NA,0,1766.6666666666667,1766.6666666666667,4240,0
7_casillas_tseltal_2015_25,12,ja',25,7,water,target,106,0,1,NA,1,NA,1,NA,0,1766.6666666666667,1766.6666666666667,4240,0
7_casillas_tseltal_2015_25,13,ixim,25,7,corn,target,106,0,1,NA,1,NA,1,NA,0,1766.6666666666667,1766.6666666666667,4240,0
7_casillas_tseltal_2015_25,14,karo,25,7,car,target,106,0,1,NA,1,NA,1,NA,0,1766.6666666666667,1766.6666666666667,4240,0
7_casillas_tseltal_2015_25,17,waybal,25,7,bed,target,106,0,1,NA,1,NA,1,NA,0,1766.6666666666667,1766.6666666666667,4240,0
7_casillas_tseltal_2015_25,18,t'inel,25,7,doorway,target,99,0,1,NA,1,NA,1,NA,0,1650.0000000000002,1650.0000000000002,3960,0
7_casillas_tseltal_2015_25,21,tz'i,25,7,dog,target,106,0,1,NA,1,NA,1,NA,0,1766.6666666666667,1766.6666666666667,4240,0
7_casillas_tseltal_2015_25,23,p'in,25,7,pot-tseltal,target,3,101,0.028846153846153848,NA,NA,NA,0,NA,0,NA,NA,NA,0
7_casillas_tseltal_2015_25,24,tzek',25,7,skirt-tseltal,target,103,0,1,NA,2,NA,1,NA,0,858.3333333333334,1366.6666666666667,3280,0
7_casillas_tseltal_2015_25,25,ich,25,7,chile,target,106,0,1,NA,1,NA,1,NA,0,1766.6666666666667,1766.6666666666667,4240,0
7_casillas_tseltal_2015_25,26,xila,25,7,chair,target,106,0,1,NA,1,NA,1,NA,0,1766.6666666666667,1766.6666666666667,4240,0
7_casillas_tseltal_2015_25,28,machit,25,7,machete,target,106,0,1,NA,1,NA,1,NA,0,1766.6666666666667,1766.6666666666667,4240,0
7_casillas_tseltal_2015_25,29,si',25,7,firewood,target,106,0,1,NA,1,NA,1,NA,0,1766.6666666666667,1766.6666666666667,4240,0
7_casillas_tseltal_2015_25,30,bojch,25,7,bowl-tseltal,target,106,0,1,NA,1,NA,1,NA,0,1766.6666666666667,1766.6666666666667,4240,0
8_casillas_tseltal_2015_14,2,moch,14,8,basket-tseltal,target,40,62,0.39215686274509803,NA,1,NA,0,NA,1,483.33333333333337,483.33333333333337,1160,-11
8_casillas_tseltal_2015_14,3,pelota,14,8,ball,target,106,0,1,NA,1,NA,1,NA,0,1766.6666666666667,1766.6666666666667,4240,-11
8_casillas_tseltal_2015_14,4,chojak',14,8,purse-tseltal,target,6,98,0.057692307692307696,NA,NA,NA,0,NA,0,NA,NA,NA,-11
8_casillas_tseltal_2015_14,6,nichim,14,8,flower,target,96,10,0.9056603773584906,NA,1,NA,1,NA,0,1600,1600,3840,-11
8_casillas_tseltal_2015_14,7,balti,14,8,bucket,target,106,0,1,NA,1,NA,1,NA,0,1766.6666666666667,1766.6666666666667,4240,-11
8_casillas_tseltal_2015_14,9,k'ajk',14,8,fire,target,106,0,1,NA,1,NA,1,NA,0,1766.6666666666667,1766.6666666666667,4240,-11
8_casillas_tseltal_2015_14,11,xawin,14,8,cat,target,106,0,1,NA,1,NA,1,NA,0,1766.6666666666667,1766.6666666666667,4240,-11
8_casillas_tseltal_2015_14,13,ixim,14,8,corn,target,44,61,0.41904761904761906,NA,2,NA,0,NA,2,366.6666666666667,350,920,-11
8_casillas_tseltal_2015_14,19,lo'bal,14,8,banana,target,106,0,1,NA,1,NA,1,NA,0,1766.6666666666667,1766.6666666666667,4240,-11
8_casillas_tseltal_2015_14,21,tz'i,14,8,dog,target,71,35,0.6698113207547169,NA,1,NA,1,NA,1,1016.6666666666667,1016.6666666666667,2440,-11
8_casillas_tseltal_2015_14,27,mes,14,8,broom,target,45,44,0.5056179775280899,NA,1,NA,0,NA,1,750,750,1800,-11
8_casillas_tseltal_2015_14,30,bojch,14,8,bowl-tseltal,target,106,0,1,NA,1,NA,1,NA,0,1766.6666666666667,1766.6666666666667,4240,-11
9_casillas_tseltal_2015_42,1,wa,42,9,tortilla,target,106,0,1,NA,1,NA,1,NA,0,1766.6666666666667,1766.6666666666667,4240,17
9_casillas_tseltal_2015_42,2,moch,42,9,basket-tseltal,target,77,28,0.7333333333333333,NA,1,NA,1,NA,1,1283.3333333333335,1283.3333333333335,3080,17
9_casillas_tseltal_2015_42,3,pelota,42,9,ball,target,72,31,0.6990291262135923,NA,1,NA,1,NA,1,1200,1200,2880,17
9_casillas_tseltal_2015_42,6,nichim,42,9,flower,target,71,29,0.71,NA,2,NA,0,NA,2,591.6666666666667,833.3333333333334,2000,17
9_casillas_tseltal_2015_42,8,mut,42,9,chicken,target,106,0,1,NA,1,NA,1,NA,0,1766.6666666666667,1766.6666666666667,4240,17
9_casillas_tseltal_2015_42,11,xawin,42,9,cat,target,72,29,0.7128712871287128,NA,1,NA,1,NA,1,1116.6666666666667,1116.6666666666667,2680,17
9_casillas_tseltal_2015_42,13,ixim,42,9,corn,target,71,30,0.7029702970297029,NA,2,NA,0,NA,2,591.6666666666667,316.6666666666667,2080,17
9_casillas_tseltal_2015_42,16,te,42,9,tree,target,39,63,0.38235294117647056,NA,1,NA,0,NA,1,466.6666666666667,466.6666666666667,1120,17
9_casillas_tseltal_2015_42,17,waybal,42,9,bed,target,11,92,0.10679611650485436,NA,NA,NA,0,NA,0,NA,NA,NA,17
9_casillas_tseltal_2015_42,19,lo'bal,42,9,banana,target,71,32,0.6893203883495146,NA,2,NA,0,NA,2,591.6666666666667,666.6666666666667,1600,17
9_casillas_tseltal_2015_42,21,tz'i,42,9,dog,target,106,0,1,NA,1,NA,1,NA,0,1766.6666666666667,1766.6666666666667,4240,17
9_casillas_tseltal_2015_42,22,tomut,42,9,egg,target,69,35,0.6634615384615384,NA,1,NA,1,NA,1,1150,1150,2760,17
9_casillas_tseltal_2015_42,25,ich,42,9,chile,target,40,60,0.4,NA,1,NA,0,NA,1,666.6666666666667,666.6666666666667,1600,17
9_casillas_tseltal_2015_42,26,xila,42,9,chair,target,67,37,0.6442307692307693,NA,1,NA,1,NA,1,1116.6666666666667,1116.6666666666667,2680,17
9_casillas_tseltal_2015_42,27,mes,42,9,broom,target,72,30,0.7058823529411765,NA,2,NA,0,NA,2,600,233.33333333333334,2320,17
9_casillas_tseltal_2015_42,29,si',42,9,firewood,target,38,64,0.37254901960784315,NA,1,NA,0,NA,1,633.3333333333334,633.3333333333334,1520,17
9_casillas_tseltal_2015_42,30,bojch,42,9,bowl-tseltal,target,42,59,0.4158415841584158,NA,1,NA,0,NA,2,616.6666666666667,616.6666666666667,1480,17
10_casillas_tseltal_2015_46,1,wa,46,10,tortilla,target,86,12,0.8775510204081632,NA,2,NA,0,NA,2,716.6666666666667,766.6666666666667,1840,21
10_casillas_tseltal_2015_46,2,moch,46,10,basket-tseltal,target,80,24,0.7692307692307693,NA,1,NA,1,NA,1,1333.3333333333335,1333.3333333333335,3200,21
10_casillas_tseltal_2015_46,3,pelota,46,10,ball,target,88,6,0.9361702127659575,NA,1,NA,1,NA,0,1466.6666666666667,1466.6666666666667,3520,21
10_casillas_tseltal_2015_46,6,nichim,46,10,flower,target,106,0,1,NA,1,NA,1,NA,0,1766.6666666666667,1766.6666666666667,4240,21
10_casillas_tseltal_2015_46,8,mut,46,10,chicken,target,62,38,0.62,NA,1,NA,0,NA,1,1033.3333333333335,1033.3333333333335,2480,21
10_casillas_tseltal_2015_46,13,ixim,46,10,corn,target,80,19,0.8080808080808081,NA,2,NA,0,NA,2,666.6666666666667,666.6666666666667,1600,21
10_casillas_tseltal_2015_46,14,karo,46,10,car,target,106,0,1,NA,1,NA,1,NA,0,1766.6666666666667,1766.6666666666667,4240,21
10_casillas_tseltal_2015_46,17,waybal,46,10,bed,target,90,11,0.8910891089108911,NA,1,NA,0,NA,0,1366.6666666666667,1366.6666666666667,3280,21
10_casillas_tseltal_2015_46,18,t'inel,46,10,doorway,target,106,0,1,NA,1,NA,1,NA,0,1766.6666666666667,1766.6666666666667,4240,21
10_casillas_tseltal_2015_46,19,lo'bal,46,10,banana,target,106,0,1,NA,1,NA,1,NA,0,1766.6666666666667,1766.6666666666667,4240,21
10_casillas_tseltal_2015_46,24,tzek',46,10,skirt-tseltal,target,52,50,0.5098039215686274,NA,2,NA,0,NA,2,433.33333333333337,616.6666666666667,1480,21
10_casillas_tseltal_2015_46,26,xila,46,10,chair,target,80,19,0.8080808080808081,NA,2,NA,0,NA,2,666.6666666666667,833.3333333333334,2000,21
10_casillas_tseltal_2015_46,28,machit,46,10,machete,target,106,0,1,NA,1,NA,1,NA,0,1766.6666666666667,1766.6666666666667,4240,21
10_casillas_tseltal_2015_46,29,si',46,10,firewood,target,106,0,1,NA,1,NA,1,NA,0,1766.6666666666667,1766.6666666666667,4240,21
11_casillas_tseltal_2015_9,1,wa,9,11,tortilla,target,47,54,0.46534653465346537,NA,1,NA,0,NA,2,783.3333333333334,783.3333333333334,1880,-16
11_casillas_tseltal_2015_9,12,ja',9,11,water,target,67,33,0.67,NA,2,NA,0,NA,2,558.3333333333334,500.00000000000006,1480,-16
11_casillas_tseltal_2015_9,24,tzek',9,11,skirt-tseltal,target,66,32,0.673469387755102,NA,1,NA,1,NA,1,1100,1100,2640,-16
12_casillas_tseltal_2015_16,1,lo'bal,16,12,banana,target,106,0,1,NA,1,NA,1,NA,0,1766.6666666666667,1766.6666666666667,4240,-9
12_casillas_tseltal_2015_16,8,xila,16,12,chair,target,106,0,1,NA,1,NA,1,NA,0,1766.6666666666667,1766.6666666666667,4240,-9
12_casillas_tseltal_2015_16,14,moch,16,12,basket-tseltal,target,30,72,0.29411764705882354,NA,1,NA,0,NA,1,466.6666666666667,466.6666666666667,1120,-9
12_casillas_tseltal_2015_16,16,chojak',16,12,purse-tseltal,target,35,69,0.33653846153846156,NA,1,NA,0,NA,1,583.3333333333334,583.3333333333334,1400,-9
12_casillas_tseltal_2015_16,17,baso,16,12,cup,target,106,0,1,NA,1,NA,1,NA,0,1766.6666666666667,1766.6666666666667,4240,-9
12_casillas_tseltal_2015_16,18,nichim,16,12,flower,target,19,85,0.18269230769230768,NA,1,NA,0,NA,1,316.6666666666667,316.6666666666667,760,-9
12_casillas_tseltal_2015_16,20,mut,16,12,chicken,target,77,15,0.8369565217391305,NA,2,NA,1,NA,1,641.6666666666667,1066.6666666666667,2560,-9
12_casillas_tseltal_2015_16,21,k'ajk',16,12,fire,target,85,16,0.8415841584158416,NA,2,NA,1,NA,2,708.3333333333335,900.0000000000001,2160,-9
12_casillas_tseltal_2015_16,22,mexa,16,12,table,target,70,27,0.7216494845360825,NA,2,NA,0,NA,2,583.3333333333334,233.33333333333334,2240,-9
12_casillas_tseltal_2015_16,24,ja',16,12,water,target,40,33,0.547945205479452,NA,1,NA,0,NA,1,533.3333333333334,533.3333333333334,1280,-9
12_casillas_tseltal_2015_16,26,karo,16,12,car,target,46,48,0.48936170212765956,NA,1,NA,0,NA,1,766.6666666666667,766.6666666666667,1840,-9
12_casillas_tseltal_2015_16,27,bojch,16,12,bowl-tseltal,target,85,19,0.8173076923076923,NA,1,NA,0,NA,1,1416.6666666666667,1416.6666666666667,3400,-9
12_casillas_tseltal_2015_16,30,waybal,16,12,bed,target,106,0,1,NA,1,NA,1,NA,0,1766.6666666666667,1766.6666666666667,4240,-9
12_casillas_tseltal_2015_16,31,t'inel,16,12,doorway,target,51,53,0.49038461538461536,NA,1,NA,0,NA,1,850.0000000000001,850.0000000000001,2040,-9
12_casillas_tseltal_2015_16,32,chenek',16,12,bean,target,106,0,1,NA,1,NA,1,NA,0,1766.6666666666667,1766.6666666666667,4240,-9
12_casillas_tseltal_2015_16,34,tomut,16,12,egg,target,82,23,0.780952380952381,NA,2,NA,0,NA,2,683.3333333333334,216.66666666666669,2760,-9
12_casillas_tseltal_2015_16,36,tzek',16,12,skirt-tseltal,target,70,34,0.6730769230769231,NA,1,NA,1,NA,1,1166.6666666666667,1166.6666666666667,2800,-9
12_casillas_tseltal_2015_16,37,ich,16,12,chile,target,51,44,0.5368421052631579,NA,1,NA,1,NA,1,850.0000000000001,850.0000000000001,2040,-9
12_casillas_tseltal_2015_16,40,si',16,12,firewood,target,106,0,1,NA,1,NA,1,NA,0,1766.6666666666667,1766.6666666666667,4240,-9
13_casillas_tseltal_2015_48,1,xila,48,13,chair,target,106,0,1,NA,1,NA,1,NA,0,1766.6666666666667,1766.6666666666667,4240,23
13_casillas_tseltal_2015_48,6,wa,48,13,tortilla,target,55,44,0.5555555555555556,NA,3,NA,0,NA,4,305.5555555555556,450.00000000000006,1080,23
13_casillas_tseltal_2015_48,7,moch,48,13,basket-tseltal,target,55,41,0.5729166666666666,NA,1,NA,0,NA,1,783.3333333333334,783.3333333333334,1880,23
13_casillas_tseltal_2015_48,8,pelota,48,13,ball,target,8,94,0.0784313725490196,NA,NA,NA,0,NA,0,NA,NA,NA,23
13_casillas_tseltal_2015_48,9,chojak',48,13,purse-tseltal,target,48,54,0.47058823529411764,NA,2,NA,0,NA,2,400,366.6666666666667,1040,23
13_casillas_tseltal_2015_48,11,nichim,48,13,flower,target,72,11,0.8674698795180723,NA,1,NA,0,NA,0,1200,1200,2880,23
13_casillas_tseltal_2015_48,12,balti,48,13,bucket,target,43,59,0.4215686274509804,NA,2,NA,0,NA,3,358.33333333333337,266.6666666666667,1080,23
13_casillas_tseltal_2015_48,31,mes,48,13,broom,target,106,0,1,NA,1,NA,1,NA,0,1766.6666666666667,1766.6666666666667,4240,23
13_casillas_tseltal_2015_48,33,si',48,13,firewood,target,29,77,0.27358490566037735,NA,1,NA,0,NA,1,300,300,720,23
14_casillas_tseltal_2015_29,8,xila,29,14,chair,target,78,15,0.8387096774193549,NA,1,NA,1,NA,1,1300,1300,3120,4
14_casillas_tseltal_2015_29,14,moch,29,14,basket-tseltal,target,106,0,1,NA,1,NA,1,NA,0,1766.6666666666667,1766.6666666666667,4240,4
14_casillas_tseltal_2015_29,15,pelota,29,14,ball,target,75,26,0.7425742574257426,NA,2,NA,0,NA,2,625,316.6666666666667,2240,4
14_casillas_tseltal_2015_29,16,chojak',29,14,purse-tseltal,target,48,38,0.5581395348837209,NA,1,NA,0,NA,1,800,800,1920,4
14_casillas_tseltal_2015_29,18,nichim,29,14,flower,target,78,20,0.7959183673469388,NA,2,NA,0,NA,2,650,800,1920,4
14_casillas_tseltal_2015_29,19,balti,29,14,bucket,target,106,0,1,NA,1,NA,1,NA,0,1766.6666666666667,1766.6666666666667,4240,4
14_casillas_tseltal_2015_29,20,mut,29,14,chicken,target,43,57,0.43,NA,2,NA,0,NA,2,358.33333333333337,316.6666666666667,960,4
14_casillas_tseltal_2015_29,21,k'ajk',29,14,fire,target,44,58,0.43137254901960786,NA,2,NA,0,NA,2,366.6666666666667,350,920,4
14_casillas_tseltal_2015_29,22,mexa,29,14,table,target,29,76,0.2761904761904762,NA,1,NA,0,NA,1,483.33333333333337,483.33333333333337,1160,4
14_casillas_tseltal_2015_29,23,xawin,29,14,cat,target,31,72,0.30097087378640774,NA,1,NA,0,NA,1,483.33333333333337,483.33333333333337,1160,4
14_casillas_tseltal_2015_29,25,ixim,29,14,corn,target,63,40,0.6116504854368932,NA,2,NA,0,NA,2,525,533.3333333333334,1280,4
14_casillas_tseltal_2015_29,26,karo,29,14,car,target,70,34,0.6730769230769231,NA,1,NA,1,NA,1,1166.6666666666667,1166.6666666666667,2800,4
14_casillas_tseltal_2015_29,30,waybal,29,14,bed,target,106,0,1,NA,1,NA,1,NA,0,1766.6666666666667,1766.6666666666667,4240,4
14_casillas_tseltal_2015_29,31,t'inel,29,14,doorway,target,10,95,0.09523809523809523,NA,NA,NA,0,NA,0,NA,NA,NA,4
14_casillas_tseltal_2015_29,34,tomut,29,14,egg,target,40,61,0.39603960396039606,NA,1,NA,0,NA,1,666.6666666666667,666.6666666666667,1600,4
14_casillas_tseltal_2015_29,39,machit,29,14,machete,target,47,56,0.4563106796116505,NA,1,NA,0,NA,1,650,650,1560,4
14_casillas_tseltal_2015_29,40,si',29,14,firewood,target,83,21,0.7980769230769231,NA,1,NA,1,NA,1,1383.3333333333335,1383.3333333333335,3320,4
15_casillas_tseltal_2015_39,1,lo'bal,39,15,banana,target,58,43,0.5742574257425742,NA,3,NA,0,NA,2,322.22222222222223,533.3333333333334,1280,14
15_casillas_tseltal_2015_39,8,xila,39,15,chair,target,14,90,0.1346153846153846,NA,1,NA,0,NA,1,233.33333333333334,233.33333333333334,560,14
15_casillas_tseltal_2015_39,14,moch,39,15,basket-tseltal,target,106,0,1,NA,1,NA,1,NA,0,1766.6666666666667,1766.6666666666667,4240,14
15_casillas_tseltal_2015_39,17,baso,39,15,cup,target,42,59,0.4158415841584158,NA,1,NA,0,NA,1,583.3333333333334,583.3333333333334,1400,14
15_casillas_tseltal_2015_39,18,nichim,39,15,flower,target,67,28,0.7052631578947368,NA,1,NA,1,NA,1,1116.6666666666667,1116.6666666666667,2680,14
15_casillas_tseltal_2015_39,23,xawin,39,15,cat,target,39,66,0.37142857142857144,NA,2,NA,0,NA,2,325,450.00000000000006,1080,14
15_casillas_tseltal_2015_39,25,ixim,39,15,corn,target,35,62,0.36082474226804123,NA,2,NA,0,NA,2,291.6666666666667,266.6666666666667,760,14
15_casillas_tseltal_2015_39,26,karo,39,15,car,target,106,0,1,NA,1,NA,1,NA,0,1766.6666666666667,1766.6666666666667,4240,14
15_casillas_tseltal_2015_39,30,waybal,39,15,bed,target,69,29,0.7040816326530612,NA,2,NA,0,NA,2,575,716.6666666666667,1720,14
15_casillas_tseltal_2015_39,32,chenek',39,15,bean,target,6,98,0.057692307692307696,NA,NA,NA,0,NA,0,NA,NA,NA,14
15_casillas_tseltal_2015_39,33,tz'i,39,15,dog,target,106,0,1,NA,1,NA,1,NA,0,1766.6666666666667,1766.6666666666667,4240,14
15_casillas_tseltal_2015_39,37,ich,39,15,chile,target,74,31,0.7047619047619048,NA,2,NA,0,NA,2,616.6666666666667,883.3333333333334,2120,14
15_casillas_tseltal_2015_39,40,si',39,15,firewood,target,61,32,0.6559139784946236,NA,2,NA,0,NA,2,508.33333333333337,666.6666666666667,1600,14
16_casillas_tseltal_2015_41,1,lo'bal,41,16,banana,target,106,0,1,NA,1,NA,1,NA,0,1766.6666666666667,1766.6666666666667,4240,16
16_casillas_tseltal_2015_41,8,xila,41,16,chair,target,54,48,0.5294117647058824,NA,1,NA,1,NA,1,900.0000000000001,900.0000000000001,2160,16
16_casillas_tseltal_2015_41,15,pelota,41,16,ball,target,21,84,0.2,NA,1,NA,0,NA,1,350,350,840,16
16_casillas_tseltal_2015_41,16,chojak',41,16,purse-tseltal,target,69,36,0.6571428571428571,NA,1,NA,1,NA,1,1150,1150,2760,16
16_casillas_tseltal_2015_41,17,baso,41,16,cup,target,71,29,0.71,NA,2,NA,0,NA,2,591.6666666666667,666.6666666666667,1600,16
16_casillas_tseltal_2015_41,18,nichim,41,16,flower,target,95,9,0.9134615384615384,NA,1,NA,0,NA,0,1450,1450,3480,16
16_casillas_tseltal_2015_41,19,balti,41,16,bucket,target,106,0,1,NA,1,NA,1,NA,0,1766.6666666666667,1766.6666666666667,4240,16
16_casillas_tseltal_2015_41,21,k'ajk',41,16,fire,target,18,87,0.17142857142857143,NA,1,NA,0,NA,1,300,300,720,16
16_casillas_tseltal_2015_41,22,mexa,41,16,table,target,22,80,0.21568627450980393,NA,1,NA,0,NA,1,366.6666666666667,366.6666666666667,880,16
16_casillas_tseltal_2015_41,23,xawin,41,16,cat,target,106,0,1,NA,1,NA,1,NA,0,1766.6666666666667,1766.6666666666667,4240,16
16_casillas_tseltal_2015_41,25,ixim,41,16,corn,target,32,72,0.3076923076923077,NA,1,NA,0,NA,1,533.3333333333334,533.3333333333334,1280,16
16_casillas_tseltal_2015_41,26,karo,41,16,car,target,106,0,1,NA,1,NA,1,NA,0,1766.6666666666667,1766.6666666666667,4240,16
16_casillas_tseltal_2015_41,27,bojch,41,16,bowl-tseltal,target,29,42,0.4084507042253521,NA,1,NA,0,NA,1,433.33333333333337,433.33333333333337,1040,16
16_casillas_tseltal_2015_41,28,na,41,16,house,target,106,0,1,NA,1,NA,1,NA,0,1766.6666666666667,1766.6666666666667,4240,16
16_casillas_tseltal_2015_41,30,waybal,41,16,bed,target,106,0,1,NA,1,NA,1,NA,0,1766.6666666666667,1766.6666666666667,4240,16
16_casillas_tseltal_2015_41,32,chenek',41,16,bean,target,21,84,0.2,NA,1,NA,0,NA,1,350,350,840,16
16_casillas_tseltal_2015_41,33,tz'i,41,16,dog,target,71,30,0.7029702970297029,NA,2,NA,1,NA,2,591.6666666666667,983.3333333333334,2360,16
16_casillas_tseltal_2015_41,35,p'in,41,16,pot-tseltal,target,106,0,1,NA,1,NA,1,NA,0,1766.6666666666667,1766.6666666666667,4240,16
16_casillas_tseltal_2015_41,37,ich,41,16,chile,target,46,56,0.45098039215686275,NA,1,NA,0,NA,1,733.3333333333334,733.3333333333334,1760,16
16_casillas_tseltal_2015_41,38,mes,41,16,broom,target,79,23,0.7745098039215687,NA,1,NA,0,NA,1,1283.3333333333335,1283.3333333333335,3080,16
16_casillas_tseltal_2015_41,40,si',41,16,firewood,target,106,0,1,NA,1,NA,1,NA,0,1766.6666666666667,1766.6666666666667,4240,16
17_casillas_tseltal_2015_32,1,lo'bal,32,17,banana,target,72,34,0.6792452830188679,NA,1,NA,1,NA,1,1200,1200,2880,7
17_casillas_tseltal_2015_32,8,xila,32,17,chair,target,71,32,0.6893203883495146,NA,1,NA,0,NA,1,1000.0000000000001,1000.0000000000001,2400,7
17_casillas_tseltal_2015_32,14,moch,32,17,basket-tseltal,target,106,0,1,NA,1,NA,1,NA,0,1766.6666666666667,1766.6666666666667,4240,7
17_casillas_tseltal_2015_32,18,nichim,32,17,flower,target,59,45,0.5673076923076923,NA,1,NA,1,NA,1,983.3333333333334,983.3333333333334,2360,7
17_casillas_tseltal_2015_32,19,balti,32,17,bucket,target,106,0,1,NA,1,NA,1,NA,0,1766.6666666666667,1766.6666666666667,4240,7
17_casillas_tseltal_2015_32,20,mut,32,17,chicken,target,67,39,0.6320754716981132,NA,1,NA,1,NA,1,1116.6666666666667,1116.6666666666667,2680,7
17_casillas_tseltal_2015_32,21,k'ajk',32,17,fire,target,106,0,1,NA,1,NA,1,NA,0,1766.6666666666667,1766.6666666666667,4240,7
17_casillas_tseltal_2015_32,23,xawin,32,17,cat,target,106,0,1,NA,1,NA,1,NA,0,1766.6666666666667,1766.6666666666667,4240,7
17_casillas_tseltal_2015_32,24,ja',32,17,water,target,53,50,0.5145631067961165,NA,1,NA,0,NA,1,883.3333333333334,883.3333333333334,2120,7
17_casillas_tseltal_2015_32,25,ixim,32,17,corn,target,46,56,0.45098039215686275,NA,1,NA,0,NA,1,766.6666666666667,766.6666666666667,1840,7
17_casillas_tseltal_2015_32,26,karo,32,17,car,target,70,34,0.6730769230769231,NA,2,NA,0,NA,2,583.3333333333334,900.0000000000001,2160,7
17_casillas_tseltal_2015_32,27,bojch,32,17,bowl-tseltal,target,46,56,0.45098039215686275,NA,1,NA,0,NA,2,766.6666666666667,766.6666666666667,1840,7
17_casillas_tseltal_2015_32,31,t'inel,32,17,doorway,target,101,0,1,NA,1,NA,1,NA,0,1566.6666666666667,1566.6666666666667,3760,7
17_casillas_tseltal_2015_32,34,tomut,32,17,egg,target,90,14,0.8653846153846154,NA,2,NA,0,NA,2,750,583.3333333333334,2200,7
17_casillas_tseltal_2015_32,35,p'in,32,17,pot-tseltal,target,87,0,1,NA,1,NA,1,NA,0,1416.6666666666667,1416.6666666666667,3400,7
17_casillas_tseltal_2015_32,36,tzek',32,17,skirt-tseltal,target,54,50,0.5192307692307693,NA,2,NA,0,NA,2,450,700,1680,7
17_casillas_tseltal_2015_32,37,ich,32,17,chile,target,37,65,0.3627450980392157,NA,1,NA,0,NA,1,500.00000000000006,500.00000000000006,1200,7
17_casillas_tseltal_2015_32,40,si',32,17,firewood,target,100,0,1,NA,2,NA,1,NA,0,833.3333333333334,1066.6666666666667,2560,7
18_casillas_tseltal_2015_32,1,lo'bal,32,18,banana,target,59,36,0.6210526315789474,NA,1,NA,1,NA,1,983.3333333333334,983.3333333333334,2360,7
18_casillas_tseltal_2015_32,16,chojak',32,18,purse-tseltal,target,72,24,0.75,NA,2,NA,1,NA,2,600,983.3333333333334,2360,7
18_casillas_tseltal_2015_32,18,nichim,32,18,flower,target,106,0,1,NA,1,NA,1,NA,0,1766.6666666666667,1766.6666666666667,4240,7
18_casillas_tseltal_2015_32,19,balti,32,18,bucket,target,106,0,1,NA,1,NA,1,NA,0,1766.6666666666667,1766.6666666666667,4240,7
18_casillas_tseltal_2015_32,22,mexa,32,18,table,target,61,36,0.6288659793814433,NA,2,NA,0,NA,2,508.33333333333337,583.3333333333334,1400,7
18_casillas_tseltal_2015_32,24,ja',32,18,water,target,66,34,0.66,NA,2,NA,0,NA,2,550.0000000000001,850.0000000000001,2040,7
18_casillas_tseltal_2015_32,25,ixim,32,18,corn,target,67,35,0.6568627450980392,NA,2,NA,0,NA,2,558.3333333333334,450.00000000000006,1600,7
18_casillas_tseltal_2015_32,26,karo,32,18,car,target,74,27,0.7326732673267327,NA,1,NA,1,NA,1,1200,1200,2880,7
18_casillas_tseltal_2015_32,30,waybal,32,18,bed,target,2,103,0.01904761904761905,NA,NA,NA,0,NA,0,NA,NA,NA,7
18_casillas_tseltal_2015_32,31,t'inel,32,18,doorway,target,106,0,1,NA,1,NA,1,NA,0,1766.6666666666667,1766.6666666666667,4240,7
18_casillas_tseltal_2015_32,38,mes,32,18,broom,target,106,0,1,NA,1,NA,1,NA,0,1766.6666666666667,1766.6666666666667,4240,7
19_casillas_tseltal_2015_35,8,xila,35,19,chair,target,83,21,0.7980769230769231,NA,1,NA,1,NA,1,1383.3333333333335,1383.3333333333335,3320,10
19_casillas_tseltal_2015_35,17,baso,35,19,cup,target,12,90,0.11764705882352941,NA,NA,NA,0,NA,0,NA,NA,NA,10
19_casillas_tseltal_2015_35,20,mut,35,19,chicken,target,54,48,0.5294117647058824,NA,1,NA,1,NA,1,900.0000000000001,900.0000000000001,2160,10
19_casillas_tseltal_2015_35,24,ja',35,19,water,target,106,0,1,NA,1,NA,1,NA,0,1766.6666666666667,1766.6666666666667,4240,10
19_casillas_tseltal_2015_35,25,ixim,35,19,corn,target,16,88,0.15384615384615385,NA,1,NA,0,NA,1,266.6666666666667,266.6666666666667,640,10
19_casillas_tseltal_2015_35,26,karo,35,19,car,target,85,20,0.8095238095238095,NA,1,NA,1,NA,1,1416.6666666666667,1416.6666666666667,3400,10
19_casillas_tseltal_2015_35,28,na,35,19,house,target,74,21,0.7789473684210526,NA,2,NA,1,NA,2,616.6666666666667,966.6666666666667,2320,10
19_casillas_tseltal_2015_35,30,waybal,35,19,bed,target,11,84,0.11578947368421053,NA,NA,NA,0,NA,0,NA,NA,NA,10
19_casillas_tseltal_2015_35,31,t'inel,35,19,doorway,target,65,39,0.625,NA,2,NA,0,NA,3,541.6666666666667,300,1880,10
19_casillas_tseltal_2015_35,32,chenek',35,19,bean,target,89,15,0.8557692307692307,NA,2,NA,0,NA,2,741.6666666666667,433.33333333333337,2520,10
19_casillas_tseltal_2015_35,36,tzek',35,19,skirt-tseltal,target,73,31,0.7019230769230769,NA,2,NA,0,NA,2,608.3333333333334,700,1680,10
19_casillas_tseltal_2015_35,37,ich,35,19,chile,target,72,0,1,NA,1,NA,1,NA,0,1200,1200,2880,10
19_casillas_tseltal_2015_35,39,machit,35,19,machete,target,22,82,0.21153846153846154,NA,1,NA,0,NA,1,366.6666666666667,366.6666666666667,880,10
19_casillas_tseltal_2015_35,40,si',35,19,firewood,target,106,0,1,NA,1,NA,1,NA,0,1766.6666666666667,1766.6666666666667,4240,10
20_casillas_tseltal_2015_36,1,lo'bal,36,20,banana,target,106,0,1,NA,1,NA,1,NA,0,1766.6666666666667,1766.6666666666667,4240,11
20_casillas_tseltal_2015_36,18,nichim,36,20,flower,target,82,23,0.780952380952381,NA,1,NA,1,NA,1,1366.6666666666667,1366.6666666666667,3280,11
20_casillas_tseltal_2015_36,19,balti,36,20,bucket,target,60,42,0.5882352941176471,NA,2,NA,0,NA,2,500.00000000000006,483.33333333333337,1240,11
20_casillas_tseltal_2015_36,20,mut,36,20,chicken,target,40,59,0.40404040404040403,NA,1,NA,0,NA,2,666.6666666666667,666.6666666666667,1600,11
20_casillas_tseltal_2015_36,21,k'ajk',36,20,fire,target,64,36,0.64,NA,1,NA,0,NA,1,883.3333333333334,883.3333333333334,2120,11
20_casillas_tseltal_2015_36,22,mexa,36,20,table,target,80,22,0.7843137254901961,NA,2,NA,0,NA,2,666.6666666666667,316.6666666666667,2440,11
20_casillas_tseltal_2015_36,24,ja',36,20,water,target,83,20,0.8058252427184466,NA,1,NA,1,NA,1,1383.3333333333335,1383.3333333333335,3320,11
20_casillas_tseltal_2015_36,25,ixim,36,20,corn,target,24,80,0.23076923076923078,NA,1,NA,0,NA,1,400,400,960,11
20_casillas_tseltal_2015_36,27,bojch,36,20,bowl-tseltal,target,17,81,0.17346938775510204,NA,1,NA,0,NA,2,233.33333333333334,233.33333333333334,560,11
20_casillas_tseltal_2015_36,28,na,36,20,house,target,69,29,0.7040816326530612,NA,1,NA,1,NA,1,1150,1150,2760,11
20_casillas_tseltal_2015_36,30,waybal,36,20,bed,target,102,0,1,NA,1,NA,1,NA,0,1633.3333333333335,1633.3333333333335,3920,11
20_casillas_tseltal_2015_36,34,tomut,36,20,egg,target,46,58,0.4423076923076923,NA,1,NA,0,NA,1,666.6666666666667,666.6666666666667,1600,11
20_casillas_tseltal_2015_36,35,p'in,36,20,pot-tseltal,target,63,37,0.63,NA,1,NA,0,NA,2,883.3333333333334,883.3333333333334,2120,11
20_casillas_tseltal_2015_36,38,mes,36,20,broom,target,56,48,0.5384615384615384,NA,1,NA,1,NA,1,933.3333333333334,933.3333333333334,2240,11
20_casillas_tseltal_2015_36,40,si',36,20,firewood,target,77,28,0.7333333333333333,NA,1,NA,1,NA,1,1283.3333333333335,1283.3333333333335,3080,11
21_casillas_tseltal_2015_26,1,lo'bal,26,21,banana,target,74,29,0.7184466019417476,NA,2,NA,1,NA,2,616.6666666666667,1016.6666666666667,2440,1
21_casillas_tseltal_2015_26,13,wa,26,21,tortilla,target,66,36,0.6470588235294118,NA,1,NA,1,NA,1,933.3333333333334,933.3333333333334,2240,1
21_casillas_tseltal_2015_26,14,moch,26,21,basket-tseltal,target,104,0,1,NA,2,NA,1,NA,0,866.6666666666667,1200,2880,1
21_casillas_tseltal_2015_26,15,pelota,26,21,ball,target,106,0,1,NA,1,NA,1,NA,0,1766.6666666666667,1766.6666666666667,4240,1
21_casillas_tseltal_2015_26,16,chojak',26,21,purse-tseltal,target,101,0,1,NA,2,NA,1,NA,0,841.6666666666667,1200,2880,1
21_casillas_tseltal_2015_26,18,nichim,26,21,flower,target,106,0,1,NA,1,NA,1,NA,0,1766.6666666666667,1766.6666666666667,4240,1
21_casillas_tseltal_2015_26,19,balti,26,21,bucket,target,106,0,1,NA,1,NA,1,NA,0,1766.6666666666667,1766.6666666666667,4240,1
21_casillas_tseltal_2015_26,20,mut,26,21,chicken,target,74,29,0.7184466019417476,NA,2,NA,0,NA,2,616.6666666666667,433.33333333333337,1920,1
21_casillas_tseltal_2015_26,21,k'ajk',26,21,fire,target,27,77,0.25961538461538464,NA,1,NA,0,NA,1,450.00000000000006,450.00000000000006,1080,1
21_casillas_tseltal_2015_26,23,xawin,26,21,cat,target,106,0,1,NA,1,NA,1,NA,0,1766.6666666666667,1766.6666666666667,4240,1
21_casillas_tseltal_2015_26,24,ja',26,21,water,target,44,56,0.44,NA,1,NA,0,NA,1,733.3333333333334,733.3333333333334,1760,1
21_casillas_tseltal_2015_26,25,ixim,26,21,corn,target,104,0,1,NA,1,NA,1,NA,0,1733.3333333333335,1733.3333333333335,4160,1
21_casillas_tseltal_2015_26,27,bojch,26,21,bowl-tseltal,target,72,0,1,NA,2,NA,1,NA,0,600,533.3333333333334,1600,1
21_casillas_tseltal_2015_26,28,na,26,21,house,target,106,0,1,NA,1,NA,1,NA,0,1766.6666666666667,1766.6666666666667,4240,1
21_casillas_tseltal_2015_26,29,te,26,21,tree,target,106,0,1,NA,1,NA,1,NA,0,1766.6666666666667,1766.6666666666667,4240,1
21_casillas_tseltal_2015_26,30,waybal,26,21,bed,target,106,0,1,NA,1,NA,1,NA,0,1766.6666666666667,1766.6666666666667,4240,1
21_casillas_tseltal_2015_26,34,tomut,26,21,egg,target,102,0,1,NA,2,NA,1,NA,0,850.0000000000001,1033.3333333333335,2480,1
21_casillas_tseltal_2015_26,38,mes,26,21,broom,target,106,0,1,NA,1,NA,1,NA,0,1766.6666666666667,1766.6666666666667,4240,1
22_casillas_tseltal_2015_36,1,lo'bal,36,22,banana,target,106,0,1,NA,1,NA,1,NA,0,1766.6666666666667,1766.6666666666667,4240,11
22_casillas_tseltal_2015_36,14,moch,36,22,basket-tseltal,target,106,0,1,NA,1,NA,1,NA,0,1766.6666666666667,1766.6666666666667,4240,11
22_casillas_tseltal_2015_36,16,chojak',36,22,purse-tseltal,target,98,0,1,NA,2,NA,1,NA,0,816.6666666666667,933.3333333333334,2240,11
22_casillas_tseltal_2015_36,17,baso,36,22,cup,target,106,0,1,NA,1,NA,1,NA,0,1766.6666666666667,1766.6666666666667,4240,11
22_casillas_tseltal_2015_36,18,nichim,36,22,flower,target,99,0,1,NA,2,NA,1,NA,0,825,716.6666666666667,2240,11
22_casillas_tseltal_2015_36,19,balti,36,22,bucket,target,71,20,0.7802197802197802,NA,2,NA,1,NA,2,591.6666666666667,983.3333333333334,2360,11
22_casillas_tseltal_2015_36,21,k'ajk',36,22,fire,target,13,92,0.12380952380952381,NA,1,NA,0,NA,1,216.66666666666669,216.66666666666669,520,11
22_casillas_tseltal_2015_36,22,mexa,36,22,table,target,19,85,0.18269230769230768,NA,1,NA,0,NA,1,316.6666666666667,316.6666666666667,760,11
22_casillas_tseltal_2015_36,23,xawin,36,22,cat,target,54,42,0.5625,NA,1,NA,0,NA,1,900.0000000000001,900.0000000000001,2160,11
22_casillas_tseltal_2015_36,24,ja',36,22,water,target,21,84,0.2,NA,1,NA,0,NA,1,350,350,840,11
22_casillas_tseltal_2015_36,25,ixim,36,22,corn,target,33,63,0.34375,NA,1,NA,0,NA,1,433.33333333333337,433.33333333333337,1040,11
22_casillas_tseltal_2015_36,26,karo,36,22,car,target,46,45,0.5054945054945055,NA,1,NA,0,NA,1,633.3333333333334,633.3333333333334,1520,11
22_casillas_tseltal_2015_36,27,bojch,36,22,bowl-tseltal,target,106,0,1,NA,1,NA,1,NA,0,1766.6666666666667,1766.6666666666667,4240,11
22_casillas_tseltal_2015_36,29,te,36,22,tree,target,106,0,1,NA,1,NA,1,NA,0,1766.6666666666667,1766.6666666666667,4240,11
22_casillas_tseltal_2015_36,34,tomut,36,22,egg,target,106,0,1,NA,1,NA,1,NA,0,1766.6666666666667,1766.6666666666667,4240,11
22_casillas_tseltal_2015_36,35,p'in,36,22,pot-tseltal,target,20,83,0.1941747572815534,NA,1,NA,0,NA,1,300,300,720,11
22_casillas_tseltal_2015_36,38,mes,36,22,broom,target,106,0,1,NA,1,NA,1,NA,0,1766.6666666666667,1766.6666666666667,4240,11
23_ronfard_2021_22,1,dog,22,23,dog,target,37,0,1,NA,1,NA,1,NA,0,616.6666666666667,616.6666666666667,1233.3333333333335,-3
23_ronfard_2021_22,10,baby,22,23,baby,target,22,30,0.4230769230769231,NA,1,NA,0,NA,1,316.6666666666667,316.6666666666667,633.3333333333334,-3
23_ronfard_2021_22,19,baby,22,23,baby,target,58,0,1,NA,1,NA,1,NA,0,966.6666666666667,966.6666666666667,1933.3333333333335,-3
23_ronfard_2021_22,23,ball,22,23,ball,target,40,14,0.7407407407407407,0.6896551724137931,1,NA,0,NA,1,516.6666666666667,516.6666666666667,1033.3333333333335,-3
23_ronfard_2021_22,39,dog,22,23,dog,target,58,0,1,NA,1,NA,1,NA,0,966.6666666666667,966.6666666666667,1933.3333333333335,-3
23_ronfard_2021_22,51,shoe,22,23,shoe,target,7,47,0.12962962962962962,NA,NA,NA,0,NA,0,NA,NA,NA,-3
23_ronfard_2021_22,53,book,22,23,book,target,58,0,1,0.7586206896551724,1,NA,1,NA,0,966.6666666666667,966.6666666666667,1933.3333333333335,-3
23_ronfard_2021_22,55,baby,22,23,baby,target,28,26,0.5185185185185185,NA,1,NA,0,NA,1,450.00000000000006,450.00000000000006,900.0000000000001,-3
23_ronfard_2021_22,60,dog,22,23,dog,target,58,0,1,NA,1,NA,1,NA,0,966.6666666666667,966.6666666666667,1933.3333333333335,-3
23_ronfard_2021_22,63,shoe,22,23,shoe,target,58,0,1,NA,1,NA,1,NA,0,966.6666666666667,966.6666666666667,1933.3333333333335,-3
24_ronfard_2021_19,10,baby,19,24,baby,target,58,0,1,1,1,NA,1,NA,0,966.6666666666667,966.6666666666667,1933.3333333333335,-6
24_ronfard_2021_19,16,ball,19,24,ball,target,58,0,1,NA,1,NA,1,NA,0,966.6666666666667,966.6666666666667,1933.3333333333335,-6
24_ronfard_2021_19,17,car,19,24,car,target,58,0,1,0.12068965517241381,1,NA,1,NA,0,966.6666666666667,966.6666666666667,1933.3333333333335,-6
24_ronfard_2021_19,19,baby,19,24,baby,target,58,0,1,1,1,NA,1,NA,0,966.6666666666667,966.6666666666667,1933.3333333333335,-6
24_ronfard_2021_19,26,car,19,24,car,target,58,0,1,0.12068965517241381,1,NA,1,NA,0,966.6666666666667,966.6666666666667,1933.3333333333335,-6
24_ronfard_2021_19,37,birdie,19,24,birdie,target,58,0,1,1,1,NA,1,NA,0,966.6666666666667,966.6666666666667,1933.3333333333335,-6
24_ronfard_2021_19,43,cat,19,24,cat,target,58,0,1,NA,1,NA,1,NA,0,966.6666666666667,966.6666666666667,1933.3333333333335,-6
24_ronfard_2021_19,45,birdie,19,24,birdie,target,58,0,1,1,1,NA,1,NA,0,966.6666666666667,966.6666666666667,1933.3333333333335,-6
24_ronfard_2021_19,48,car,19,24,car,target,58,0,1,0.12068965517241381,1,NA,1,NA,0,966.6666666666667,966.6666666666667,1933.3333333333335,-6
24_ronfard_2021_19,63,shoe,19,24,shoe,target,3,51,0.05555555555555555,0.05172413793103448,NA,NA,0,NA,0,NA,NA,NA,-6
25_ronfard_2021_20,1,baby,20,25,baby,target,7,47,0.12962962962962962,-0.39655172413793105,NA,NA,0,NA,0,NA,NA,NA,-5
25_ronfard_2021_20,3,dog,20,25,dog,target,58,0,1,-0.27586206896551724,1,NA,1,NA,0,966.6666666666667,966.6666666666667,1933.3333333333335,-5
25_ronfard_2021_20,6,shoe,20,25,shoe,target,43,11,0.7962962962962963,0.12068965517241381,1,NA,0,NA,1,716.6666666666667,716.6666666666667,1433.3333333333335,-5
25_ronfard_2021_20,13,book,20,25,book,target,4,51,0.07272727272727272,-0.4482758620689655,NA,NA,0,NA,0,NA,NA,NA,-5
25_ronfard_2021_20,15,baby,20,25,baby,target,1,51,0.019230769230769232,-0.39655172413793105,NA,NA,0,NA,0,NA,NA,NA,-5
25_ronfard_2021_20,19,cat,20,25,cat,target,0,46,0,-0.45689655172413796,NA,NA,0,NA,0,NA,NA,NA,-5
25_ronfard_2021_20,25,car,20,25,car,target,14,38,0.2692307692307692,0.08620689655172414,NA,NA,0,NA,0,NA,NA,NA,-5
25_ronfard_2021_20,29,ball,20,25,ball,target,7,45,0.1346153846153846,-0.41379310344827586,NA,NA,0,NA,0,NA,NA,NA,-5
25_ronfard_2021_20,43,car,20,25,car,target,3,53,0.05357142857142857,0.08620689655172414,NA,NA,0,NA,0,NA,NA,NA,-5
25_ronfard_2021_20,47,book,20,25,book,target,20,28,0.4166666666666667,-0.4482758620689655,1,NA,0,NA,1,333.33333333333337,333.33333333333337,666.6666666666667,-5
25_ronfard_2021_20,57,birdie,20,25,birdie,target,24,27,0.47058823529411764,-0.4310344827586207,1,NA,0,NA,1,400,400,800,-5
25_ronfard_2021_20,58,ball,20,25,ball,target,24,31,0.43636363636363634,-0.41379310344827586,1,NA,0,NA,1,400,400,800,-5
25_ronfard_2021_20,60,dog,20,25,dog,target,2,53,0.03636363636363636,-0.27586206896551724,NA,NA,0,NA,0,NA,NA,NA,-5
25_ronfard_2021_20,62,car,20,25,car,target,31,17,0.6458333333333334,0.08620689655172414,1,NA,0,NA,1,350,350,700,-5
26_ronfard_2021_19,13,book,19,26,book,target,51,0,1,NA,1,NA,1,NA,0,850.0000000000001,850.0000000000001,1700.0000000000002,-6
26_ronfard_2021_19,19,cat,19,26,cat,target,58,0,1,NA,1,NA,1,NA,0,966.6666666666667,966.6666666666667,1933.3333333333335,-6
26_ronfard_2021_19,22,birdie,19,26,birdie,target,39,13,0.75,NA,1,NA,0,NA,1,633.3333333333334,633.3333333333334,1266.6666666666667,-6
27_ronfard_2021_19,1,dog,19,27,dog,target,58,0,1,0.7068965517241379,1,NA,1,NA,0,966.6666666666667,966.6666666666667,1933.3333333333335,-6
27_ronfard_2021_19,4,shoe,19,27,shoe,target,31,23,0.5740740740740741,NA,1,NA,0,NA,1,516.6666666666667,516.6666666666667,1033.3333333333335,-6
27_ronfard_2021_19,8,shoe,19,27,shoe,target,58,0,1,NA,1,NA,1,NA,0,966.6666666666667,966.6666666666667,1933.3333333333335,-6
27_ronfard_2021_19,13,baby,19,27,baby,target,8,46,0.14814814814814814,NA,NA,NA,0,NA,0,NA,NA,NA,-6
27_ronfard_2021_19,24,cat,19,27,cat,target,21,34,0.38181818181818183,0.6810344827586207,1,NA,0,NA,1,350,350,700,-6
27_ronfard_2021_19,34,shoe,19,27,shoe,target,12,42,0.2222222222222222,NA,1,NA,0,NA,1,200,200,400,-6
27_ronfard_2021_19,49,cat,19,27,cat,target,58,0,1,0.6810344827586207,1,NA,1,NA,0,966.6666666666667,966.6666666666667,1933.3333333333335,-6
28_ronfard_2021_18,3,car,18,28,car,target,19,34,0.3584905660377358,NA,1,NA,0,NA,1,316.6666666666667,316.6666666666667,633.3333333333334,-7
28_ronfard_2021_18,4,book,18,28,book,target,51,5,0.9107142857142857,0.9396551724137931,1,NA,0,NA,0,850.0000000000001,850.0000000000001,1700.0000000000002,-7
28_ronfard_2021_18,10,baby,18,28,baby,target,30,0,1,NA,2,NA,1,NA,0,250.00000000000003,283.33333333333337,566.6666666666667,-7
28_ronfard_2021_18,19,baby,18,28,baby,target,58,0,1,NA,1,NA,1,NA,0,966.6666666666667,966.6666666666667,1933.3333333333335,-7
28_ronfard_2021_18,22,book,18,28,book,target,58,0,1,0.9396551724137931,1,NA,1,NA,0,966.6666666666667,966.6666666666667,1933.3333333333335,-7
28_ronfard_2021_18,23,ball,18,28,ball,target,58,0,1,0.9568965517241379,1,NA,1,NA,0,966.6666666666667,966.6666666666667,1933.3333333333335,-7
28_ronfard_2021_18,43,cat,18,28,cat,target,52,2,0.9629629629629629,NA,1,NA,0,NA,0,866.6666666666667,866.6666666666667,1733.3333333333335,-7
28_ronfard_2021_18,54,cat,18,28,cat,target,40,15,0.7272727272727273,NA,1,NA,0,NA,1,666.6666666666667,666.6666666666667,1333.3333333333335,-7
29_ronfard_2021_22,5,shoe,22,29,shoe,target,31,21,0.5961538461538461,0.03448275862068961,1,NA,0,NA,1,350,350,700,-3
29_ronfard_2021_22,10,baby,22,29,baby,target,35,13,0.7291666666666666,0.15517241379310343,2,NA,0,NA,2,291.6666666666667,266.6666666666667,633.3333333333334,-3
29_ronfard_2021_22,17,birdie,22,29,birdie,target,26,26,0.5,0.22413793103448276,1,NA,0,NA,1,350,350,700,-3
29_ronfard_2021_22,24,ball,22,29,ball,target,16,39,0.2909090909090909,NA,1,NA,0,NA,1,266.6666666666667,266.6666666666667,533.3333333333334,-3
29_ronfard_2021_22,38,car,22,29,car,target,22,29,0.43137254901960786,0.017241379310344807,1,NA,0,NA,1,266.6666666666667,266.6666666666667,533.3333333333334,-3
29_ronfard_2021_22,55,dog,22,29,dog,target,21,34,0.38181818181818183,NA,1,NA,0,NA,1,350,350,700,-3
30_ronfard_2021_23,1,baby,23,30,baby,target,43,0,1,NA,1,NA,1,NA,0,566.6666666666667,566.6666666666667,1133.3333333333335,-2
30_ronfard_2021_23,7,book,23,30,book,target,40,12,0.7692307692307693,NA,1,NA,0,NA,1,516.6666666666667,516.6666666666667,1033.3333333333335,-2
30_ronfard_2021_23,10,shoe,23,30,shoe,target,37,14,0.7254901960784313,0.34482758620689663,1,NA,0,NA,1,566.6666666666667,566.6666666666667,1133.3333333333335,-2
30_ronfard_2021_23,12,baby,23,30,baby,target,58,0,1,NA,1,NA,1,NA,0,966.6666666666667,966.6666666666667,1933.3333333333335,-2
30_ronfard_2021_23,14,cat,23,30,cat,target,35,21,0.625,NA,1,NA,0,NA,1,583.3333333333334,583.3333333333334,1166.6666666666667,-2
30_ronfard_2021_23,15,baby,23,30,baby,target,48,0,1,NA,1,NA,1,NA,0,750,750,1500,-2
30_ronfard_2021_23,19,cat,23,30,cat,target,58,0,1,NA,1,NA,1,NA,0,966.6666666666667,966.6666666666667,1933.3333333333335,-2
30_ronfard_2021_23,26,cat,23,30,cat,target,44,7,0.8627450980392157,NA,1,NA,0,NA,0,733.3333333333334,733.3333333333334,1466.6666666666667,-2
30_ronfard_2021_23,35,car,23,30,car,target,35,17,0.6730769230769231,0.3620689655172413,1,NA,0,NA,1,433.33333333333337,433.33333333333337,866.6666666666667,-2
30_ronfard_2021_23,45,baby,23,30,baby,target,33,20,0.6226415094339622,NA,1,NA,0,NA,1,483.33333333333337,483.33333333333337,966.6666666666667,-2
30_ronfard_2021_23,53,baby,23,30,baby,target,39,16,0.7090909090909091,NA,1,NA,0,NA,1,650,650,1300,-2
31_ronfard_2021_19,1,baby,19,31,baby,target,29,25,0.5370370370370371,0.20689655172413796,1,NA,0,NA,1,483.33333333333337,483.33333333333337,966.6666666666667,-6
31_ronfard_2021_19,3,dog,19,31,dog,target,47,9,0.8392857142857143,0.5862068965517241,1,NA,0,NA,0,783.3333333333334,783.3333333333334,1566.6666666666667,-6
31_ronfard_2021_19,7,book,19,31,book,target,58,0,1,NA,1,NA,1,NA,0,966.6666666666667,966.6666666666667,1933.3333333333335,-6
31_ronfard_2021_19,10,shoe,19,31,shoe,target,48,6,0.8888888888888888,NA,1,NA,0,NA,0,800,800,1600,-6
31_ronfard_2021_19,13,book,19,31,book,target,31,25,0.5535714285714286,NA,1,NA,0,NA,1,516.6666666666667,516.6666666666667,1033.3333333333335,-6
31_ronfard_2021_19,14,cat,19,31,cat,target,29,26,0.5272727272727272,0.5948275862068966,1,NA,0,NA,1,483.33333333333337,483.33333333333337,966.6666666666667,-6
31_ronfard_2021_19,19,cat,19,31,cat,target,58,0,1,0.5948275862068966,1,NA,1,NA,0,966.6666666666667,966.6666666666667,1933.3333333333335,-6
31_ronfard_2021_19,30,birdie,19,31,birdie,target,37,17,0.6851851851851852,0.206896551724138,1,NA,0,NA,1,616.6666666666667,616.6666666666667,1233.3333333333335,-6
31_ronfard_2021_19,36,shoe,19,31,shoe,target,58,0,1,NA,1,NA,1,NA,0,966.6666666666667,966.6666666666667,1933.3333333333335,-6
32_ronfard_2021_20,3,car,20,32,car,target,58,0,1,NA,1,NA,1,NA,0,966.6666666666667,966.6666666666667,1933.3333333333335,-5
32_ronfard_2021_20,8,cat,20,32,cat,target,52,3,0.9454545454545454,NA,1,NA,0,NA,0,866.6666666666667,866.6666666666667,1733.3333333333335,-5
32_ronfard_2021_20,10,baby,20,32,baby,target,48,0,1,NA,1,NA,1,NA,0,750,750,1500,-5
32_ronfard_2021_20,16,ball,20,32,ball,target,58,0,1,NA,1,NA,1,NA,0,966.6666666666667,966.6666666666667,1933.3333333333335,-5
32_ronfard_2021_20,17,car,20,32,car,target,23,33,0.4107142857142857,NA,1,NA,0,NA,1,383.33333333333337,383.33333333333337,766.6666666666667,-5
32_ronfard_2021_20,26,car,20,32,car,target,58,0,1,NA,1,NA,1,NA,0,966.6666666666667,966.6666666666667,1933.3333333333335,-5
33_ronfard_2021_18,1,baby,18,33,baby,target,21,32,0.39622641509433965,NA,1,NA,0,NA,1,233.33333333333334,233.33333333333334,466.6666666666667,-7
33_ronfard_2021_18,15,baby,18,33,baby,target,44,0,1,NA,1,NA,1,NA,0,733.3333333333334,733.3333333333334,1466.6666666666667,-7
34_ronfard_2021_20,1,dog,20,34,dog,target,58,0,1,-0.3390804597701149,1,NA,1,NA,0,966.6666666666667,966.6666666666667,1933.3333333333335,-5
34_ronfard_2021_20,4,book,20,34,book,target,58,0,1,0.3448275862068965,1,NA,1,NA,0,966.6666666666667,966.6666666666667,1933.3333333333335,-5
34_ronfard_2021_20,7,shoe,20,34,shoe,target,38,15,0.71698113207547165,0.22413793103448276,1,NA,0,NA,1,583.3333333333334,583.3333333333334,1166.6666666666667,-5
34_ronfard_2021_20,10,baby,20,34,baby,target,49,7,0.875,0.7586206896551724,1,NA,0,NA,0,816.6666666666667,816.6666666666667,1633.3333333333335,-5
34_ronfard_2021_20,16,ball,20,34,ball,target,22,30,0.4230769230769231,0.3405172413793103,1,NA,0,NA,1,250.00000000000003,250.00000000000003,500.00000000000006,-5
34_ronfard_2021_20,19,baby,20,34,baby,target,39,17,0.6964285714285714,0.7586206896551724,1,NA,0,NA,1,650,650,1300,-5
34_ronfard_2021_20,23,ball,20,34,ball,target,58,0,1,0.3405172413793103,1,NA,1,NA,0,966.6666666666667,966.6666666666667,1933.3333333333335,-5
34_ronfard_2021_20,26,car,20,34,car,target,24,27,0.47058823529411764,0.22413793103448276,1,NA,0,NA,1,316.6666666666667,316.6666666666667,633.3333333333334,-5
34_ronfard_2021_20,27,shoe,20,34,shoe,target,34,16,0.68,0.22413793103448276,2,NA,0,NA,2,283.33333333333337,266.6666666666667,600,-5
34_ronfard_2021_20,32,ball,20,34,ball,target,58,0,1,0.3405172413793103,1,NA,1,NA,0,966.6666666666667,966.6666666666667,1933.3333333333335,-5
34_ronfard_2021_20,36,ball,20,34,ball,target,21,32,0.39622641509433965,0.3405172413793103,1,NA,0,NA,1,283.33333333333337,283.33333333333337,566.6666666666667,-5
34_ronfard_2021_20,37,birdie,20,34,birdie,target,58,0,1,0.7931034482758621,1,NA,1,NA,0,966.6666666666667,966.6666666666667,1933.3333333333335,-5
34_ronfard_2021_20,39,dog,20,34,dog,target,1,51,0.019230769230769232,-0.3390804597701149,NA,NA,0,NA,0,NA,NA,NA,-5
34_ronfard_2021_20,43,cat,20,34,cat,target,0,58,0,-0.29310344827586204,NA,NA,0,NA,0,NA,NA,NA,-5
34_ronfard_2021_20,48,car,20,34,car,target,33,19,0.6346153846153846,0.22413793103448276,2,NA,0,NA,2,275,200,700,-5
34_ronfard_2021_20,49,cat,20,34,cat,target,0,56,0,-0.29310344827586204,NA,NA,0,NA,0,NA,NA,NA,-5
34_ronfard_2021_20,53,book,20,34,book,target,13,40,0.24528301886792453,0.3448275862068965,1,NA,0,NA,1,216.66666666666669,216.66666666666669,433.33333333333337,-5
34_ronfard_2021_20,60,dog,20,34,dog,target,53,0,1,-0.3390804597701149,1,NA,1,NA,0,883.3333333333334,883.3333333333334,1766.6666666666667,-5
35_ronfard_2021_18,4,book,18,35,book,target,57,0,1,NA,1,NA,1,NA,0,950.0000000000001,950.0000000000001,1900.0000000000002,-7
35_ronfard_2021_18,10,baby,18,35,baby,target,20,31,0.39215686274509803,-0.31034482758620685,1,NA,0,NA,1,250.00000000000003,250.00000000000003,500.00000000000006,-7
35_ronfard_2021_18,15,birdie,18,35,birdie,target,4,50,0.07407407407407407,-0.24999999999999994,NA,NA,0,NA,0,NA,NA,NA,-7
35_ronfard_2021_18,26,car,18,35,car,target,39,17,0.6964285714285714,NA,1,NA,0,NA,1,650,650,1300,-7
35_ronfard_2021_18,30,dog,18,35,dog,target,14,38,0.2692307692307692,0.19827586206896552,NA,NA,0,NA,0,NA,NA,NA,-7
35_ronfard_2021_18,43,cat,18,35,cat,target,53,0,1,0.22413793103448276,2,NA,1,NA,0,441.66666666666674,450.00000000000006,900.0000000000001,-7
35_ronfard_2021_18,45,birdie,18,35,birdie,target,29,26,0.5272727272727272,-0.24999999999999994,1,NA,0,NA,1,483.33333333333337,483.33333333333337,966.6666666666667,-7
35_ronfard_2021_18,49,cat,18,35,cat,target,49,5,0.9074074074074074,0.22413793103448276,1,NA,0,NA,0,816.6666666666667,816.6666666666667,1633.3333333333335,-7
36_ronfard_2021_18,1,baby,18,36,baby,target,58,0,1,NA,1,NA,1,NA,0,966.6666666666667,966.6666666666667,1933.3333333333335,-7
36_ronfard_2021_18,3,dog,18,36,dog,target,20,27,0.425531914893617,NA,1,NA,0,NA,1,250.00000000000003,250.00000000000003,500.00000000000006,-7
36_ronfard_2021_18,10,shoe,18,36,shoe,target,58,0,1,NA,1,NA,1,NA,0,966.6666666666667,966.6666666666667,1933.3333333333335,-7
36_ronfard_2021_18,13,book,18,36,book,target,58,0,1,0.853448275862069,1,NA,1,NA,0,966.6666666666667,966.6666666666667,1933.3333333333335,-7
36_ronfard_2021_18,15,baby,18,36,baby,target,58,0,1,NA,1,NA,1,NA,0,966.6666666666667,966.6666666666667,1933.3333333333335,-7
36_ronfard_2021_18,29,ball,18,36,ball,target,35,17,0.6730769230769231,0.8017241379310345,1,NA,0,NA,1,583.3333333333334,583.3333333333334,1166.6666666666667,-7
36_ronfard_2021_18,41,ball,18,36,ball,target,58,0,1,0.8017241379310345,1,NA,1,NA,0,966.6666666666667,966.6666666666667,1933.3333333333335,-7
37_ronfard_2021_21,1,dog,21,37,dog,target,17,38,0.3090909090909091,0.29310344827586204,1,NA,0,NA,1,283.33333333333337,283.33333333333337,566.6666666666667,-4
37_ronfard_2021_21,10,baby,21,37,baby,target,58,0,1,1,1,NA,1,NA,0,966.6666666666667,966.6666666666667,1933.3333333333335,-4
37_ronfard_2021_21,15,birdie,21,37,birdie,target,58,0,1,1,1,NA,1,NA,0,966.6666666666667,966.6666666666667,1933.3333333333335,-4
37_ronfard_2021_21,16,ball,21,37,ball,target,42,0,1,NA,2,NA,1,NA,0,350,266.6666666666667,866.6666666666667,-4
37_ronfard_2021_21,23,ball,21,37,ball,target,26,29,0.4727272727272727,NA,1,NA,0,NA,1,433.33333333333337,433.33333333333337,866.6666666666667,-4
37_ronfard_2021_21,27,shoe,21,37,shoe,target,58,0,1,NA,1,NA,1,NA,0,966.6666666666667,966.6666666666667,1933.3333333333335,-4
37_ronfard_2021_21,37,birdie,21,37,birdie,target,58,0,1,1,1,NA,1,NA,0,966.6666666666667,966.6666666666667,1933.3333333333335,-4
37_ronfard_2021_21,41,birdie,21,37,birdie,target,58,0,1,1,1,NA,1,NA,0,966.6666666666667,966.6666666666667,1933.3333333333335,-4
37_ronfard_2021_21,49,cat,21,37,cat,target,58,0,1,0.3448275862068966,1,NA,1,NA,0,966.6666666666667,966.6666666666667,1933.3333333333335,-4
37_ronfard_2021_21,54,cat,21,37,cat,target,58,0,1,0.3448275862068966,1,NA,1,NA,0,966.6666666666667,966.6666666666667,1933.3333333333335,-4
38_ronfard_2021_18,3,dog,18,38,dog,target,5,50,0.09090909090909091,-0.353448275862069,NA,NA,0,NA,0,NA,NA,NA,-7
38_ronfard_2021_18,7,book,18,38,book,target,34,17,0.6666666666666666,NA,1,NA,0,NA,1,450.00000000000006,450.00000000000006,900.0000000000001,-7
38_ronfard_2021_18,12,baby,18,38,baby,target,58,0,1,NA,1,NA,1,NA,0,966.6666666666667,966.6666666666667,1933.3333333333335,-7
38_ronfard_2021_18,15,baby,18,38,baby,target,54,0,1,NA,1,NA,1,NA,0,883.3333333333334,883.3333333333334,1766.6666666666667,-7
38_ronfard_2021_18,26,cat,18,38,cat,target,21,33,0.3888888888888889,-0.37068965517241376,1,NA,0,NA,1,350,350,700,-7
38_ronfard_2021_18,32,dog,18,38,dog,target,20,35,0.36363636363636365,-0.353448275862069,1,NA,0,NA,1,333.33333333333337,333.33333333333337,666.6666666666667,-7
38_ronfard_2021_18,45,baby,18,38,baby,target,35,19,0.6481481481481481,NA,1,NA,0,NA,1,583.3333333333334,583.3333333333334,1166.6666666666667,-7
38_ronfard_2021_18,63,book,18,38,book,target,40,17,0.7017543859649122,NA,1,NA,0,NA,0,450.00000000000006,450.00000000000006,900.0000000000001,-7
39_ronfard_2021_23,1,baby,23,39,baby,target,52,3,0.9454545454545454,NA,1,NA,0,NA,0,866.6666666666667,866.6666666666667,1733.3333333333335,-2
39_ronfard_2021_23,3,dog,23,39,dog,target,58,0,1,NA,1,NA,1,NA,0,966.6666666666667,966.6666666666667,1933.3333333333335,-2
39_ronfard_2021_23,6,shoe,23,39,shoe,target,37,16,0.6981132075471698,NA,1,NA,0,NA,1,483.33333333333337,483.33333333333337,966.6666666666667,-2
39_ronfard_2021_23,7,book,23,39,book,target,31,10,0.7560975609756098,0.6666666666666667,1,NA,0,NA,1,366.6666666666667,366.6666666666667,733.3333333333334,-2
39_ronfard_2021_23,15,baby,23,39,baby,target,58,0,1,NA,1,NA,1,NA,0,966.6666666666667,966.6666666666667,1933.3333333333335,-2
39_ronfard_2021_23,29,ball,23,39,ball,target,58,0,1,0.6149425287356322,1,NA,1,NA,0,966.6666666666667,966.6666666666667,1933.3333333333335,-2
39_ronfard_2021_23,41,ball,23,39,ball,target,58,0,1,0.6149425287356322,1,NA,1,NA,0,966.6666666666667,966.6666666666667,1933.3333333333335,-2
39_ronfard_2021_23,47,book,23,39,book,target,58,0,1,0.6666666666666667,1,NA,1,NA,0,966.6666666666667,966.6666666666667,1933.3333333333335,-2
39_ronfard_2021_23,53,baby,23,39,baby,target,58,0,1,NA,1,NA,1,NA,0,966.6666666666667,966.6666666666667,1933.3333333333335,-2
39_ronfard_2021_23,58,ball,23,39,ball,target,1,31,0.03125,0.6149425287356322,NA,NA,0,NA,0,NA,NA,NA,-2
39_ronfard_2021_23,63,book,23,39,book,target,58,0,1,0.6666666666666667,1,NA,1,NA,0,966.6666666666667,966.6666666666667,1933.3333333333335,-2
39_ronfard_2021_23,67,shoe,23,39,shoe,target,58,0,1,NA,1,NA,1,NA,0,966.6666666666667,966.6666666666667,1933.3333333333335,-2
40_ronfard_2021_22,1,dog,22,40,dog,target,16,34,0.32,0.27586206896551724,1,NA,0,NA,1,266.6666666666667,266.6666666666667,533.3333333333334,-3
40_ronfard_2021_22,15,birdie,22,40,birdie,target,23,27,0.46,-0.14655172413793105,1,NA,0,NA,1,383.33333333333337,383.33333333333337,766.6666666666667,-3
40_ronfard_2021_22,16,ball,22,40,ball,target,27,27,0.5,NA,1,NA,0,NA,1,450.00000000000006,450.00000000000006,900.0000000000001,-3
40_ronfard_2021_22,19,baby,22,40,baby,target,17,38,0.3090909090909091,-0.060344827586206906,1,NA,0,NA,1,283.33333333333337,283.33333333333337,566.6666666666667,-3
40_ronfard_2021_22,26,car,22,40,car,target,44,6,0.88,-0.24137931034482762,1,NA,0,NA,0,733.3333333333334,733.3333333333334,1466.6666666666667,-3
40_ronfard_2021_22,32,ball,22,40,ball,target,58,0,1,NA,1,NA,1,NA,0,966.6666666666667,966.6666666666667,1933.3333333333335,-3
40_ronfard_2021_22,41,birdie,22,40,birdie,target,36,14,0.72,-0.14655172413793105,1,NA,0,NA,1,600,600,1200,-3
40_ronfard_2021_22,43,cat,22,40,cat,target,58,0,1,0.4137931034482759,1,NA,1,NA,0,966.6666666666667,966.6666666666667,1933.3333333333335,-3
40_ronfard_2021_22,51,shoe,22,40,shoe,target,0,58,0,-0.10344827586206896,NA,NA,0,NA,0,NA,NA,NA,-3
41_ronfard_2021_24,8,shoe,24,41,shoe,target,16,38,0.2962962962962963,0.3017241379310345,1,NA,0,NA,1,266.6666666666667,266.6666666666667,533.3333333333334,-1
41_ronfard_2021_24,10,baby,24,41,baby,target,31,23,0.5740740740740741,0.32758620689655177,1,NA,0,NA,1,516.6666666666667,516.6666666666667,1033.3333333333335,-1
41_ronfard_2021_24,17,cat,24,41,cat,target,58,0,1,NA,1,NA,1,NA,0,966.6666666666667,966.6666666666667,1933.3333333333335,-1
41_ronfard_2021_24,24,cat,24,41,cat,target,58,0,1,NA,1,NA,1,NA,0,966.6666666666667,966.6666666666667,1933.3333333333335,-1
41_ronfard_2021_24,34,shoe,24,41,shoe,target,27,27,0.5,0.3017241379310345,1,NA,0,NA,1,450.00000000000006,450.00000000000006,900.0000000000001,-1
41_ronfard_2021_24,41,car,24,41,car,target,40,8,0.8333333333333334,0.2844827586206897,1,NA,0,NA,1,483.33333333333337,483.33333333333337,966.6666666666667,-1
41_ronfard_2021_24,43,baby,24,41,baby,target,41,12,0.7735849056603774,0.32758620689655177,1,NA,0,NA,1,683.3333333333334,683.3333333333334,1366.6666666666667,-1
41_ronfard_2021_24,55,birdie,24,41,birdie,target,32,17,0.6530612244897959,0.25,1,NA,0,NA,1,533.3333333333334,533.3333333333334,1066.6666666666667,-1
41_ronfard_2021_24,60,car,24,41,car,target,58,0,1,0.2844827586206897,1,NA,1,NA,0,966.6666666666667,966.6666666666667,1933.3333333333335,-1
42_ronfard_2021_18,4,book,18,42,book,target,47,7,0.8703703703703703,0.7586206896551724,1,NA,0,NA,0,783.3333333333334,783.3333333333334,1566.6666666666667,-7
42_ronfard_2021_18,30,dog,18,42,dog,target,32,22,0.5925925925925926,0.2471264367816092,1,NA,0,NA,1,533.3333333333334,533.3333333333334,1066.6666666666667,-7
42_ronfard_2021_18,32,ball,18,42,ball,target,47,6,0.8867924528301887,0.7844827586206896,1,NA,0,NA,0,783.3333333333334,783.3333333333334,1566.6666666666667,-7
42_ronfard_2021_18,36,ball,18,42,ball,target,58,0,1,0.7844827586206896,1,NA,1,NA,0,966.6666666666667,966.6666666666667,1933.3333333333335,-7
42_ronfard_2021_18,39,dog,18,42,dog,target,9,46,0.16363636363636364,0.2471264367816092,NA,NA,0,NA,0,NA,NA,NA,-7
42_ronfard_2021_18,54,cat,18,42,cat,target,36,14,0.72,0.1781609195402299,1,NA,0,NA,1,600,600,1200,-7
42_ronfard_2021_18,58,baby,18,42,baby,target,58,0,1,NA,1,NA,1,NA,0,966.6666666666667,966.6666666666667,1933.3333333333335,-7
42_ronfard_2021_18,60,dog,18,42,dog,target,44,9,0.8301886792452831,0.2471264367816092,1,NA,0,NA,1,733.3333333333334,733.3333333333334,1466.6666666666667,-7
43_ronfard_2021_18,3,dog,18,43,dog,target,49,6,0.8909090909090909,0.45689655172413796,1,NA,0,NA,0,816.6666666666667,816.6666666666667,1633.3333333333335,-7
43_ronfard_2021_18,19,cat,18,43,cat,target,23,31,0.42592592592592593,0.41379310344827586,1,NA,0,NA,1,383.33333333333337,383.33333333333337,766.6666666666667,-7
43_ronfard_2021_18,30,birdie,18,43,birdie,target,24,31,0.43636363636363634,NA,1,NA,0,NA,1,400,400,800,-7
43_ronfard_2021_18,34,birdie,18,43,birdie,target,32,23,0.5818181818181818,NA,1,NA,0,NA,1,533.3333333333334,533.3333333333334,1066.6666666666667,-7
43_ronfard_2021_18,39,dog,18,43,dog,target,58,0,1,0.45689655172413796,1,NA,1,NA,0,966.6666666666667,966.6666666666667,1933.3333333333335,-7
43_ronfard_2021_18,43,car,18,43,car,target,58,0,1,NA,1,NA,1,NA,0,966.6666666666667,966.6666666666667,1933.3333333333335,-7
43_ronfard_2021_18,47,book,18,43,book,target,58,0,1,0.646551724137931,1,NA,1,NA,0,966.6666666666667,966.6666666666667,1933.3333333333335,-7
43_ronfard_2021_18,48,ball,18,43,ball,target,10,41,0.19607843137254902,0.5862068965517241,NA,NA,0,NA,0,NA,NA,NA,-7
43_ronfard_2021_18,51,cat,18,43,cat,target,29,26,0.5272727272727272,0.41379310344827586,1,NA,0,NA,1,483.33333333333337,483.33333333333337,966.6666666666667,-7
43_ronfard_2021_18,58,ball,18,43,ball,target,58,0,1,0.5862068965517241,1,NA,1,NA,0,966.6666666666667,966.6666666666667,1933.3333333333335,-7
43_ronfard_2021_18,60,dog,18,43,dog,target,58,0,1,0.45689655172413796,1,NA,1,NA,0,966.6666666666667,966.6666666666667,1933.3333333333335,-7
43_ronfard_2021_18,63,book,18,43,book,target,58,0,1,0.646551724137931,1,NA,1,NA,0,966.6666666666667,966.6666666666667,1933.3333333333335,-7
44_ronfard_2021_20,3,car,20,44,car,target,58,0,1,NA,1,NA,1,NA,0,966.6666666666667,966.6666666666667,1933.3333333333335,-5
44_ronfard_2021_20,10,baby,20,44,baby,target,25,24,0.5102040816326531,NA,1,NA,0,NA,1,400,400,800,-5
44_ronfard_2021_20,26,car,20,44,car,target,58,0,1,NA,1,NA,1,NA,0,966.6666666666667,966.6666666666667,1933.3333333333335,-5
45_ronfard_2021_18,2,book,18,45,book,target,58,0,1,0.9094827586206896,1,NA,1,NA,0,966.6666666666667,966.6666666666667,1933.3333333333335,-7
45_ronfard_2021_18,5,shoe,18,45,shoe,target,45,9,0.8333333333333334,0.4339080459770115,1,NA,0,NA,1,750,750,1500,-7
45_ronfard_2021_18,8,baby,18,45,baby,target,58,0,1,0.8045977011494253,1,NA,1,NA,0,966.6666666666667,966.6666666666667,1933.3333333333335,-7
45_ronfard_2021_18,15,car,18,45,car,target,58,0,1,0.42241379310344823,1,NA,1,NA,0,966.6666666666667,966.6666666666667,1933.3333333333335,-7
45_ronfard_2021_18,20,book,18,45,book,target,37,16,0.6981132075471698,0.9094827586206896,1,NA,0,NA,1,616.6666666666667,616.6666666666667,1233.3333333333335,-7
45_ronfard_2021_18,21,ball,18,45,ball,target,58,0,1,0.9310344827586207,1,NA,1,NA,0,966.6666666666667,966.6666666666667,1933.3333333333335,-7
45_ronfard_2021_18,24,car,18,45,car,target,39,9,0.8125,0.42241379310344823,1,NA,0,NA,1,650,650,1300,-7
45_ronfard_2021_18,25,shoe,18,45,shoe,target,40,12,0.7692307692307693,0.4339080459770115,2,NA,0,NA,2,333.33333333333337,216.66666666666669,900.0000000000001,-7
45_ronfard_2021_18,28,dog,18,45,dog,target,58,0,1,1,1,NA,1,NA,0,966.6666666666667,966.6666666666667,1933.3333333333335,-7
45_ronfard_2021_18,35,birdie,18,45,birdie,target,41,9,0.82,0.6781609195402298,1,NA,0,NA,0,683.3333333333334,683.3333333333334,1366.6666666666667,-7
45_ronfard_2021_18,41,cat,18,45,cat,target,58,0,1,1,1,NA,1,NA,0,966.6666666666667,966.6666666666667,1933.3333333333335,-7
45_ronfard_2021_18,51,book,18,45,book,target,58,0,1,0.9094827586206896,1,NA,1,NA,0,966.6666666666667,966.6666666666667,1933.3333333333335,-7
45_ronfard_2021_18,53,baby,18,45,baby,target,51,5,0.9107142857142857,0.8045977011494253,1,NA,0,NA,0,850.0000000000001,850.0000000000001,1700.0000000000002,-7
45_ronfard_2021_18,56,baby,18,45,baby,target,58,0,1,0.8045977011494253,1,NA,1,NA,0,966.6666666666667,966.6666666666667,1933.3333333333335,-7
45_ronfard_2021_18,61,shoe,18,45,shoe,target,4,51,0.07272727272727272,0.4339080459770115,NA,NA,0,NA,0,NA,NA,NA,-7
45_ronfard_2021_18,63,book,18,45,book,target,58,0,1,0.9094827586206896,1,NA,1,NA,0,966.6666666666667,966.6666666666667,1933.3333333333335,-7
46_ronfard_2021_22,3,car,22,46,car,target,58,0,1,NA,1,NA,1,NA,0,966.6666666666667,966.6666666666667,1933.3333333333335,-3
46_ronfard_2021_22,15,birdie,22,46,birdie,target,58,0,1,NA,1,NA,1,NA,0,966.6666666666667,966.6666666666667,1933.3333333333335,-3
46_ronfard_2021_22,23,ball,22,46,ball,target,41,0,1,NA,1,NA,1,NA,0,683.3333333333334,683.3333333333334,1366.6666666666667,-3
46_ronfard_2021_22,26,car,22,46,car,target,38,13,0.7450980392156863,NA,1,NA,0,NA,1,633.3333333333334,633.3333333333334,1266.6666666666667,-3
46_ronfard_2021_22,30,dog,22,46,dog,target,33,20,0.6226415094339622,NA,1,NA,0,NA,1,550,550,1100,-3
46_ronfard_2021_22,32,ball,22,46,ball,target,16,28,0.36363636363636365,NA,1,NA,0,NA,1,266.6666666666667,266.6666666666667,533.3333333333334,-3
46_ronfard_2021_22,36,ball,22,46,ball,target,16,39,0.2909090909090909,NA,1,NA,0,NA,1,266.6666666666667,266.6666666666667,533.3333333333334,-3
46_ronfard_2021_22,60,dog,22,46,dog,target,58,0,1,NA,1,NA,1,NA,0,966.6666666666667,966.6666666666667,1933.3333333333335,-3
47_ronfard_2021_20,1,dog,20,47,dog,target,41,7,0.8541666666666666,0.853448275862069,1,NA,0,NA,0,683.3333333333334,683.3333333333334,1366.6666666666667,-5
47_ronfard_2021_20,3,car,20,47,car,target,32,19,0.6274509803921569,0.8045977011494253,2,NA,0,NA,2,266.6666666666667,283.33333333333337,566.6666666666667,-5
47_ronfard_2021_20,4,book,20,47,book,target,58,0,1,0.4195402298850575,1,NA,1,NA,0,966.6666666666667,966.6666666666667,1933.3333333333335,-5
47_ronfard_2021_20,7,shoe,20,47,shoe,target,36,0,1,0.5114942528735632,1,NA,1,NA,0,600,600,1200,-5
47_ronfard_2021_20,8,cat,20,47,cat,target,48,0,1,0.7672413793103449,2,NA,1,NA,0,400,250.00000000000003,1100,-5
47_ronfard_2021_20,15,birdie,20,47,birdie,target,30,20,0.6,0.5172413793103449,2,NA,0,NA,2,250,266.6666666666667,533.3333333333334,-5
47_ronfard_2021_20,16,ball,20,47,ball,target,51,5,0.9107142857142857,0.42528735632183906,1,NA,0,NA,0,850.0000000000001,850.0000000000001,1700.0000000000002,-5
47_ronfard_2021_20,17,car,20,47,car,target,50,0,1,0.8045977011494253,2,NA,1,NA,0,416.6666666666667,350,966.6666666666667,-5
47_ronfard_2021_20,19,baby,20,47,baby,target,58,0,1,0.6551724137931034,1,NA,1,NA,0,966.6666666666667,966.6666666666667,1933.3333333333335,-5
47_ronfard_2021_20,22,book,20,47,book,target,9,46,0.16363636363636364,0.4195402298850575,NA,NA,0,NA,0,NA,NA,NA,-5
47_ronfard_2021_20,23,ball,20,47,ball,target,39,17,0.6964285714285714,0.42528735632183906,1,NA,0,NA,1,650,650,1300,-5
47_ronfard_2021_20,26,car,20,47,car,target,58,0,1,0.8045977011494253,1,NA,1,NA,0,966.6666666666667,966.6666666666667,1933.3333333333335,-5
47_ronfard_2021_20,39,dog,20,47,dog,target,58,0,1,0.853448275862069,1,NA,1,NA,0,966.6666666666667,966.6666666666667,1933.3333333333335,-5
47_ronfard_2021_20,53,book,20,47,book,target,39,15,0.7222222222222222,0.4195402298850575,1,NA,0,NA,1,650,650,1300,-5
48_ronfard_2021_22,3,car,22,48,car,target,17,37,0.3148148148148148,0.764367816091954,1,NA,0,NA,1,283.33333333333337,283.33333333333337,566.6666666666667,-3
48_ronfard_2021_22,8,cat,22,48,cat,target,16,33,0.32653061224489793,NA,1,NA,0,NA,1,266.6666666666667,266.6666666666667,533.3333333333334,-3
48_ronfard_2021_22,10,baby,22,48,baby,target,33,0,1,NA,1,NA,1,NA,0,550,550,1100,-3
48_ronfard_2021_22,17,car,22,48,car,target,58,0,1,0.764367816091954,1,NA,1,NA,0,966.6666666666667,966.6666666666667,1933.3333333333335,-3
48_ronfard_2021_22,19,baby,22,48,baby,target,58,0,1,NA,1,NA,1,NA,0,966.6666666666667,966.6666666666667,1933.3333333333335,-3
48_ronfard_2021_22,23,ball,22,48,ball,target,58,0,1,NA,1,NA,1,NA,0,966.6666666666667,966.6666666666667,1933.3333333333335,-3
48_ronfard_2021_22,48,car,22,48,car,target,58,0,1,0.764367816091954,1,NA,1,NA,0,966.6666666666667,966.6666666666667,1933.3333333333335,-3
48_ronfard_2021_22,51,shoe,22,48,shoe,target,58,0,1,0.7873563218390804,1,NA,1,NA,0,966.6666666666667,966.6666666666667,1933.3333333333335,-3
48_ronfard_2021_22,54,cat,22,48,cat,target,39,10,0.7959183673469388,NA,1,NA,0,NA,0,650,650,1300,-3
49_ronfard_2021_19,13,baby,19,49,baby,target,58,0,1,1,1,NA,1,NA,0,966.6666666666667,966.6666666666667,1933.3333333333335,-6
49_ronfard_2021_19,17,cat,19,49,cat,target,58,0,1,1,1,NA,1,NA,0,966.6666666666667,966.6666666666667,1933.3333333333335,-6
49_ronfard_2021_19,20,birdie,19,49,birdie,target,58,0,1,1,1,NA,1,NA,0,966.6666666666667,966.6666666666667,1933.3333333333335,-6
49_ronfard_2021_19,39,ball,19,49,ball,target,58,0,1,NA,1,NA,1,NA,0,966.6666666666667,966.6666666666667,1933.3333333333335,-6
49_ronfard_2021_19,58,dog,19,49,dog,target,58,0,1,1,1,NA,1,NA,0,966.6666666666667,966.6666666666667,1933.3333333333335,-6
50_ronfard_2021_18,1,shoe,18,50,shoe,target,44,9,0.8301886792452831,0.02298850574712652,1,NA,0,NA,1,733.3333333333334,733.3333333333334,1466.6666666666667,-7
50_ronfard_2021_18,5,shoe,18,50,shoe,target,27,24,0.5294117647058824,0.02298850574712652,1,NA,0,NA,1,416.6666666666667,416.6666666666667,833.3333333333334,-7
50_ronfard_2021_18,10,baby,18,50,baby,target,47,3,0.94,NA,1,NA,0,NA,0,783.3333333333334,783.3333333333334,1566.6666666666667,-7
50_ronfard_2021_18,20,car,18,50,car,target,13,41,0.24074074074074073,0,1,NA,0,NA,1,216.66666666666669,216.66666666666669,433.33333333333337,-7
50_ronfard_2021_18,21,cat,18,50,cat,target,12,40,0.23076923076923078,-0.3017241379310345,1,NA,0,NA,1,200,200,400,-7
50_ronfard_2021_18,30,car,18,50,car,target,12,37,0.24489795918367346,0,1,NA,0,NA,1,200,200,400,-7
50_ronfard_2021_18,34,dog,18,50,dog,target,7,47,0.12962962962962962,-0.22413793103448276,NA,NA,0,NA,0,NA,NA,NA,-7
50_ronfard_2021_18,36,ball,18,50,ball,target,12,43,0.21818181818181817,NA,1,NA,0,NA,1,200,200,400,-7
50_ronfard_2021_18,38,car,18,50,car,target,8,47,0.14545454545454545,0,NA,NA,0,NA,0,NA,NA,NA,-7
50_ronfard_2021_18,40,baby,18,50,baby,target,43,2,0.9555555555555556,NA,1,NA,0,NA,0,683.3333333333334,683.3333333333334,1366.6666666666667,-7
50_ronfard_2021_18,46,cat,18,50,cat,target,47,0,1,-0.3017241379310345,1,NA,1,NA,0,783.3333333333334,783.3333333333334,1566.6666666666667,-7
50_ronfard_2021_18,48,baby,18,50,baby,target,40,14,0.7407407407407407,NA,1,NA,0,NA,1,666.6666666666667,666.6666666666667,1333.3333333333335,-7
50_ronfard_2021_18,62,shoe,18,50,shoe,target,58,0,1,0.02298850574712652,1,NA,1,NA,0,966.6666666666667,966.6666666666667,1933.3333333333335,-7
51_ronfard_2021_21,1,car,21,51,car,target,42,9,0.8235294117647058,NA,1,NA,0,NA,1,650,650,1300,-4
51_ronfard_2021_21,6,cat,21,51,cat,target,12,42,0.2222222222222222,NA,1,NA,0,NA,1,200,200,400,-4
51_ronfard_2021_21,8,baby,21,51,baby,target,58,0,1,NA,1,NA,1,NA,0,966.6666666666667,966.6666666666667,1933.3333333333335,-4
51_ronfard_2021_21,17,baby,21,51,baby,target,11,45,0.19642857142857142,NA,NA,NA,0,NA,0,NA,NA,NA,-4
51_ronfard_2021_21,20,book,21,51,book,target,58,0,1,NA,1,NA,1,NA,0,966.6666666666667,966.6666666666667,1933.3333333333335,-4
51_ronfard_2021_21,46,car,21,51,car,target,20,35,0.36363636363636365,NA,1,NA,0,NA,1,333.33333333333337,333.33333333333337,666.6666666666667,-4
51_ronfard_2021_21,52,cat,21,51,cat,target,58,0,1,NA,1,NA,1,NA,0,966.6666666666667,966.6666666666667,1933.3333333333335,-4
52_ronfard_2021_24,1,dog,24,52,dog,target,1,54,0.01818181818181818,NA,NA,NA,0,NA,0,NA,NA,NA,-1
52_ronfard_2021_24,23,car,24,52,car,target,34,19,0.6415094339622641,NA,1,NA,0,NA,1,383.33333333333337,383.33333333333337,766.6666666666667,-1
52_ronfard_2021_24,32,birdie,24,52,birdie,target,13,41,0.24074074074074073,NA,1,NA,0,NA,1,216.66666666666669,216.66666666666669,433.33333333333337,-1
53_ronfard_2021_23,6,shoe,23,53,shoe,target,25,29,0.46296296296296297,NA,1,NA,0,NA,1,416.6666666666667,416.6666666666667,833.3333333333334,-2
53_ronfard_2021_23,12,baby,23,53,baby,target,58,0,1,0.18965517241379315,1,NA,1,NA,0,966.6666666666667,966.6666666666667,1933.3333333333335,-2
53_ronfard_2021_23,15,baby,23,53,baby,target,58,0,1,0.18965517241379315,1,NA,1,NA,0,966.6666666666667,966.6666666666667,1933.3333333333335,-2
53_ronfard_2021_23,26,cat,23,53,cat,target,26,24,0.52,NA,1,NA,0,NA,1,416.6666666666667,416.6666666666667,833.3333333333334,-2
53_ronfard_2021_23,29,ball,23,53,ball,target,58,0,1,NA,1,NA,1,NA,0,966.6666666666667,966.6666666666667,1933.3333333333335,-2
53_ronfard_2021_23,30,birdie,23,53,birdie,target,7,47,0.12962962962962962,0.1206896551724138,NA,NA,0,NA,0,NA,NA,NA,-2
54_ronfard_2021_19,16,baby,19,54,baby,target,58,0,1,NA,1,NA,1,NA,0,966.6666666666667,966.6666666666667,1933.3333333333335,-6
55_ronfard_2021_20,3,dog,20,55,dog,target,58,0,1,0.8505747126436781,1,NA,1,NA,0,966.6666666666667,966.6666666666667,1933.3333333333335,-5
55_ronfard_2021_20,7,book,20,55,book,target,25,20,0.5555555555555556,NA,1,NA,0,NA,1,416.6666666666667,416.6666666666667,833.3333333333334,-5
55_ronfard_2021_20,10,shoe,20,55,shoe,target,44,10,0.8148148148148148,0.7586206896551724,1,NA,0,NA,1,733.3333333333334,733.3333333333334,1466.6666666666667,-5
55_ronfard_2021_20,12,baby,20,55,baby,target,58,0,1,0.9137931034482758,1,NA,1,NA,0,966.6666666666667,966.6666666666667,1933.3333333333335,-5
55_ronfard_2021_20,21,cat,20,55,cat,target,58,0,1,0.8045977011494253,1,NA,1,NA,0,966.6666666666667,966.6666666666667,1933.3333333333335,-5
55_ronfard_2021_20,25,car,20,55,car,target,49,0,1,0.75,2,NA,1,NA,0,408.33333333333337,533.3333333333334,1066.6666666666667,-5
55_ronfard_2021_20,26,cat,20,55,cat,target,27,25,0.5192307692307693,0.8045977011494253,1,NA,0,NA,1,400,400,800,-5
55_ronfard_2021_20,30,birdie,20,55,birdie,target,58,0,1,0.8620689655172413,1,NA,1,NA,0,966.6666666666667,966.6666666666667,1933.3333333333335,-5
55_ronfard_2021_20,32,dog,20,55,dog,target,58,0,1,0.8505747126436781,1,NA,1,NA,0,966.6666666666667,966.6666666666667,1933.3333333333335,-5
55_ronfard_2021_20,35,car,20,55,car,target,58,0,1,0.75,1,NA,1,NA,0,966.6666666666667,966.6666666666667,1933.3333333333335,-5
55_ronfard_2021_20,51,cat,20,55,cat,target,55,1,0.9821428571428571,0.8045977011494253,1,NA,0,NA,0,916.6666666666667,916.6666666666667,1833.3333333333335,-5
55_ronfard_2021_20,57,birdie,20,55,birdie,target,42,10,0.8076923076923077,0.8620689655172413,2,NA,0,NA,2,350,466.6666666666667,933.3333333333334,-5
56_ronfard_2021_18,1,baby,18,56,baby,target,20,35,0.36363636363636365,0.4827586206896552,1,NA,0,NA,1,333.33333333333337,333.33333333333337,666.6666666666667,-7
56_ronfard_2021_18,29,car,18,56,car,target,50,0,1,NA,1,NA,1,NA,0,833.3333333333334,833.3333333333334,1666.6666666666667,-7
56_ronfard_2021_18,31,baby,18,56,baby,target,58,0,1,0.4827586206896552,1,NA,1,NA,0,966.6666666666667,966.6666666666667,1933.3333333333335,-7
56_ronfard_2021_18,43,birdie,18,56,birdie,target,43,11,0.7962962962962963,0.43965517241379315,1,NA,0,NA,1,716.6666666666667,716.6666666666667,1433.3333333333335,-7
56_ronfard_2021_18,44,ball,18,56,ball,target,55,1,0.9821428571428571,NA,1,NA,0,NA,0,916.6666666666667,916.6666666666667,1833.3333333333335,-7
57_ronfard_2021_18,9,cat,18,57,cat,target,8,44,0.15384615384615385,NA,NA,NA,0,NA,0,NA,NA,NA,-7
57_ronfard_2021_18,17,birdie,18,57,birdie,target,48,6,0.8888888888888888,NA,1,NA,0,NA,0,800,800,1600,-7
57_ronfard_2021_18,20,car,18,57,car,target,35,20,0.6363636363636364,0.603448275862069,1,NA,0,NA,1,583.3333333333334,583.3333333333334,1166.6666666666667,-7
57_ronfard_2021_18,24,ball,18,57,ball,target,31,21,0.5961538461538461,NA,1,NA,0,NA,1,366.6666666666667,366.6666666666667,733.3333333333334,-7
57_ronfard_2021_18,36,ball,18,57,ball,target,44,8,0.8461538461538461,NA,2,NA,0,NA,2,366.6666666666667,250.00000000000003,966.6666666666667,-7
57_ronfard_2021_18,43,ball,18,57,ball,target,35,19,0.6481481481481481,NA,1,NA,0,NA,1,583.3333333333334,583.3333333333334,1166.6666666666667,-7
57_ronfard_2021_18,62,shoe,18,57,shoe,target,58,0,1,0.6551724137931034,1,NA,1,NA,0,966.6666666666667,966.6666666666667,1933.3333333333335,-7
58_ronfard_2021_21,1,dog,21,58,dog,target,58,0,1,1,1,NA,1,NA,0,966.6666666666667,966.6666666666667,1933.3333333333335,-4
58_ronfard_2021_21,3,car,21,58,car,target,58,0,1,NA,1,NA,1,NA,0,966.6666666666667,966.6666666666667,1933.3333333333335,-4
58_ronfard_2021_21,10,baby,21,58,baby,target,58,0,1,1,1,NA,1,NA,0,966.6666666666667,966.6666666666667,1933.3333333333335,-4
58_ronfard_2021_21,17,car,21,58,car,target,58,0,1,NA,1,NA,1,NA,0,966.6666666666667,966.6666666666667,1933.3333333333335,-4
58_ronfard_2021_21,30,dog,21,58,dog,target,58,0,1,1,1,NA,1,NA,0,966.6666666666667,966.6666666666667,1933.3333333333335,-4
58_ronfard_2021_21,32,ball,21,58,ball,target,58,0,1,NA,1,NA,1,NA,0,966.6666666666667,966.6666666666667,1933.3333333333335,-4
58_ronfard_2021_21,45,birdie,21,58,birdie,target,58,0,1,1,1,NA,1,NA,0,966.6666666666667,966.6666666666667,1933.3333333333335,-4
58_ronfard_2021_21,54,cat,21,58,cat,target,58,0,1,1,1,NA,1,NA,0,966.6666666666667,966.6666666666667,1933.3333333333335,-4
58_ronfard_2021_21,55,baby,21,58,baby,target,58,0,1,1,1,NA,1,NA,0,966.6666666666667,966.6666666666667,1933.3333333333335,-4
59_ronfard_2021_18,1,dog,18,59,dog,target,15,39,0.2777777777777778,0.146551724137931,1,NA,0,NA,1,250.00000000000003,250.00000000000003,500.00000000000006,-7
59_ronfard_2021_18,4,book,18,59,book,target,27,26,0.5094339622641509,0.03448275862068967,1,NA,0,NA,1,450.00000000000006,450.00000000000006,900.0000000000001,-7
59_ronfard_2021_18,8,cat,18,59,cat,target,13,37,0.26,0.07758620689655171,NA,NA,0,NA,0,NA,NA,NA,-7
59_ronfard_2021_18,10,baby,18,59,baby,target,49,0,1,NA,1,NA,1,NA,0,800,800,1600,-7
59_ronfard_2021_18,19,baby,18,59,baby,target,58,0,1,NA,1,NA,1,NA,0,966.6666666666667,966.6666666666667,1933.3333333333335,-7
59_ronfard_2021_18,26,car,18,59,car,target,58,0,1,NA,1,NA,1,NA,0,966.6666666666667,966.6666666666667,1933.3333333333335,-7
59_ronfard_2021_18,30,dog,18,59,dog,target,58,0,1,0.146551724137931,1,NA,1,NA,0,966.6666666666667,966.6666666666667,1933.3333333333335,-7
59_ronfard_2021_18,32,ball,18,59,ball,target,26,25,0.5098039215686274,0,1,NA,0,NA,1,333.33333333333337,333.33333333333337,666.6666666666667,-7
59_ronfard_2021_18,49,cat,18,59,cat,target,35,19,0.6481481481481481,0.07758620689655171,1,NA,0,NA,1,583.3333333333334,583.3333333333334,1166.6666666666667,-7
60_ronfard_2021_22,3,car,22,60,car,target,27,25,0.5192307692307693,0.7327586206896551,2,NA,0,NA,2,225,216.66666666666669,466.6666666666667,-3
60_ronfard_2021_22,7,shoe,22,60,shoe,target,58,0,1,0.7844827586206897,1,NA,1,NA,0,966.6666666666667,966.6666666666667,1933.3333333333335,-3
60_ronfard_2021_22,15,birdie,22,60,birdie,target,58,0,1,NA,1,NA,1,NA,0,966.6666666666667,966.6666666666667,1933.3333333333335,-3
60_ronfard_2021_22,26,car,22,60,car,target,58,0,1,0.7327586206896551,1,NA,1,NA,0,966.6666666666667,966.6666666666667,1933.3333333333335,-3
60_ronfard_2021_22,41,birdie,22,60,birdie,target,58,0,1,NA,1,NA,1,NA,0,966.6666666666667,966.6666666666667,1933.3333333333335,-3
61_ronfard_2021_18,7,shoe,18,61,shoe,target,58,0,1,0.6551724137931034,1,NA,1,NA,0,966.6666666666667,966.6666666666667,1933.3333333333335,-7
61_ronfard_2021_18,8,cat,18,61,cat,target,34,20,0.6296296296296297,NA,1,NA,0,NA,1,566.6666666666667,566.6666666666667,1133.3333333333335,-7
61_ronfard_2021_18,10,baby,18,61,baby,target,58,0,1,0.8448275862068966,1,NA,1,NA,0,966.6666666666667,966.6666666666667,1933.3333333333335,-7
61_ronfard_2021_18,16,ball,18,61,ball,target,58,0,1,0.4367816091954024,1,NA,1,NA,0,966.6666666666667,966.6666666666667,1933.3333333333335,-7
61_ronfard_2021_18,17,car,18,61,car,target,58,0,1,0.6293103448275863,1,NA,1,NA,0,966.6666666666667,966.6666666666667,1933.3333333333335,-7
61_ronfard_2021_18,22,book,18,61,book,target,25,22,0.5319148936170213,0.3850574712643678,1,NA,0,NA,1,333.33333333333337,333.33333333333337,666.6666666666667,-7
61_ronfard_2021_18,23,ball,18,61,ball,target,29,27,0.5178571428571429,0.4367816091954024,1,NA,0,NA,1,483.33333333333337,483.33333333333337,966.6666666666667,-7
61_ronfard_2021_18,26,car,18,61,car,target,25,26,0.49019607843137253,0.6293103448275863,1,NA,0,NA,1,416.6666666666667,416.6666666666667,833.3333333333334,-7
61_ronfard_2021_18,27,shoe,18,61,shoe,target,58,0,1,0.6551724137931034,1,NA,1,NA,0,966.6666666666667,966.6666666666667,1933.3333333333335,-7
61_ronfard_2021_18,36,ball,18,61,ball,target,40,11,0.7843137254901961,0.4367816091954024,1,NA,0,NA,1,583.3333333333334,583.3333333333334,1166.6666666666667,-7
61_ronfard_2021_18,37,birdie,18,61,birdie,target,44,10,0.8148148148148148,0.7586206896551724,1,NA,0,NA,1,733.3333333333334,733.3333333333334,1466.6666666666667,-7
61_ronfard_2021_18,41,birdie,18,61,birdie,target,44,0,1,0.7586206896551724,1,NA,1,NA,0,733.3333333333334,733.3333333333334,1466.6666666666667,-7
61_ronfard_2021_18,49,cat,18,61,cat,target,30,20,0.6,NA,1,NA,0,NA,1,366.6666666666667,366.6666666666667,733.3333333333334,-7
61_ronfard_2021_18,51,shoe,18,61,shoe,target,37,15,0.7115384615384616,0.6551724137931034,1,NA,0,NA,1,483.33333333333337,483.33333333333337,966.6666666666667,-7
61_ronfard_2021_18,53,book,18,61,book,target,58,0,1,0.3850574712643678,1,NA,1,NA,0,966.6666666666667,966.6666666666667,1933.3333333333335,-7
61_ronfard_2021_18,54,cat,18,61,cat,target,24,26,0.48,NA,1,NA,0,NA,1,400,400,800,-7
61_ronfard_2021_18,55,baby,18,61,baby,target,50,0,1,0.8448275862068966,1,NA,1,NA,0,716.6666666666667,716.6666666666667,1433.3333333333335,-7
61_ronfard_2021_18,65,book,18,61,book,target,22,29,0.43137254901960786,0.3850574712643678,1,NA,0,NA,1,316.6666666666667,316.6666666666667,633.3333333333334,-7
62_ronfard_2021_18,7,baby,18,62,baby,target,39,17,0.6964285714285714,NA,1,NA,0,NA,1,650,650,1300,-7
62_ronfard_2021_18,21,cat,18,62,cat,target,9,44,0.16981132075471697,-0.43103448275862066,NA,NA,0,NA,0,NA,NA,NA,-7
62_ronfard_2021_18,24,ball,18,62,ball,target,25,29,0.46296296296296297,NA,1,NA,0,NA,1,416.6666666666667,416.6666666666667,833.3333333333334,-7
62_ronfard_2021_18,30,car,18,62,car,target,36,18,0.6666666666666666,NA,1,NA,0,NA,1,600,600,1200,-7
62_ronfard_2021_18,55,dog,18,62,dog,target,20,34,0.37037037037037035,-0.4137931034482758,1,NA,0,NA,1,333.33333333333337,333.33333333333337,666.6666666666667,-7
108_pomper_saffran_2016_46,9,bucket,46,108,bucket,target,68,34,0.6666666666666666,NA,1,NA,0,NA,1,1050,1050,2100,21
108_pomper_saffran_2016_46,14,bib,46,108,bib,target,72,29,0.7128712871287128,NA,2,NA,0,NA,2,600,383.33333333333337,1633.3333333333335,21
108_pomper_saffran_2016_46,15,necklace,46,108,necklace,target,84,21,0.8,NA,1,NA,1,NA,1,1400,1400,2800,21
108_pomper_saffran_2016_46,16,scissors,46,108,scissors,target,73,0,1,NA,1,NA,1,NA,0,1216.6666666666667,1216.6666666666667,2433.3333333333335,21
109_pomper_saffran_2016_43,1,slide,43,109,slide,target,52,49,0.5148514851485149,NA,1,NA,0,NA,1,866.6666666666667,866.6666666666667,1733.3333333333335,18
109_pomper_saffran_2016_43,3,zipper,43,109,zipper,target,51,48,0.5151515151515151,NA,1,NA,0,NA,1,666.6666666666667,666.6666666666667,1333.3333333333335,18
109_pomper_saffran_2016_43,4,flag,43,109,flag,target,52,45,0.5360824742268041,NA,1,NA,0,NA,1,816.6666666666667,816.6666666666667,1633.3333333333335,18
109_pomper_saffran_2016_43,5,belt,43,109,belt,target,77,22,0.7777777777777778,NA,1,NA,1,NA,1,1283.3333333333335,1283.3333333333335,2566.666666666667,18
109_pomper_saffran_2016_43,7,dress,43,109,dress,target,106,0,1,NA,1,NA,1,NA,0,1766.6666666666667,1766.6666666666667,3533.3333333333335,18
109_pomper_saffran_2016_43,8,pudding,43,109,pudding,target,82,19,0.8118811881188119,NA,2,NA,0,NA,2,683.3333333333334,250.00000000000003,2233.3333333333335,18
110_pomper_saffran_2016_47,10,purse,47,110,purse,target,93,8,0.9207920792079208,NA,2,NA,0,NA,0,775,400,2300,22
110_pomper_saffran_2016_47,11,shovel,47,110,shovel,target,106,0,1,NA,1,NA,1,NA,0,1766.6666666666667,1766.6666666666667,3533.3333333333335,22
110_pomper_saffran_2016_47,14,comb,47,110,comb,target,106,0,1,NA,1,NA,1,NA,0,1766.6666666666667,1766.6666666666667,3533.3333333333335,22
110_pomper_saffran_2016_47,16,plate,47,110,plate,target,28,50,0.358974358974359,NA,1,NA,0,NA,1,333.33333333333337,333.33333333333337,666.6666666666667,22
111_pomper_saffran_2016_42,2,boot,42,111,boot,target,67,35,0.6568627450980392,NA,1,NA,1,NA,1,1116.6666666666667,1116.6666666666667,2233.3333333333335,17
111_pomper_saffran_2016_42,6,puzzle,42,111,puzzle,target,95,7,0.9313725490196079,NA,1,NA,1,NA,0,1583.3333333333335,1583.3333333333335,3166.666666666667,17
111_pomper_saffran_2016_42,7,glasses,42,111,glasses,target,81,10,0.8901098901098901,NA,1,NA,1,NA,0,1350,1350,2700,17
112_pomper_saffran_2016_43,9,bucket,43,112,bucket,target,97,0,1,NA,1,NA,1,NA,0,1483.3333333333335,1483.3333333333335,2966.666666666667,18
112_pomper_saffran_2016_43,12,glove,43,112,glove,target,88,12,0.88,NA,2,NA,0,NA,2,733.3333333333335,283.33333333333337,2366.666666666667,18
112_pomper_saffran_2016_43,13,donut,43,112,donut,target,68,35,0.6601941747572816,NA,1,NA,1,NA,1,1133.3333333333335,1133.3333333333335,2266.666666666667,18
112_pomper_saffran_2016_43,14,bib,43,112,bib,target,66,34,0.66,NA,1,NA,0,NA,1,1100,1100,2200,18
112_pomper_saffran_2016_43,16,scissors,43,112,scissors,target,78,22,0.78,NA,1,NA,1,NA,1,1266.6666666666667,1266.6666666666667,2533.3333333333335,18
113_pomper_saffran_2016_42,10,knife,42,113,knife,target,68,13,0.8395061728395061,NA,1,NA,0,NA,1,1050,1050,2100,17
113_pomper_saffran_2016_42,12,flag,42,113,flag,target,77,0,1,NA,1,NA,1,NA,0,1200,1200,2400,17
113_pomper_saffran_2016_42,13,belt,42,113,belt,target,106,0,1,NA,1,NA,1,NA,0,1766.6666666666667,1766.6666666666667,3533.3333333333335,17
114_pomper_saffran_2016_42,1,slide,42,114,slide,target,106,0,1,NA,1,NA,1,NA,0,1766.6666666666667,1766.6666666666667,3533.3333333333335,17
114_pomper_saffran_2016_42,3,zipper,42,114,zipper,target,106,0,1,NA,1,NA,1,NA,0,1766.6666666666667,1766.6666666666667,3533.3333333333335,17
114_pomper_saffran_2016_42,4,flag,42,114,flag,target,95,9,0.9134615384615384,NA,1,NA,1,NA,0,1583.3333333333335,1583.3333333333335,3166.666666666667,17
115_pomper_saffran_2016_42,1,bucket,42,115,bucket,target,46,46,0.5,NA,2,NA,0,NA,2,383.33333333333337,200,1133.3333333333335,17
115_pomper_saffran_2016_42,4,glove,42,115,glove,target,106,0,1,NA,1,NA,1,NA,0,1766.6666666666667,1766.6666666666667,3533.3333333333335,17
115_pomper_saffran_2016_42,5,donut,42,115,donut,target,47,50,0.4845360824742268,NA,2,NA,0,NA,2,391.6666666666667,550,1100,17
115_pomper_saffran_2016_42,8,scissors,42,115,scissors,target,106,0,1,NA,1,NA,1,NA,0,1766.6666666666667,1766.6666666666667,3533.3333333333335,17
116_pomper_saffran_2016_45,10,boot,45,116,boot,target,106,0,1,NA,1,NA,1,NA,0,1766.6666666666667,1766.6666666666667,3533.3333333333335,20
116_pomper_saffran_2016_45,13,slipper,45,116,slipper,target,77,26,0.7475728155339806,NA,1,NA,1,NA,1,1283.3333333333335,1283.3333333333335,2566.666666666667,20
116_pomper_saffran_2016_45,14,puzzle,45,116,puzzle,target,100,3,0.970873786407767,NA,1,NA,1,NA,0,1666.6666666666667,1666.6666666666667,3333.3333333333335,20
116_pomper_saffran_2016_45,16,chalk,45,116,chalk,target,65,36,0.6435643564356436,NA,1,NA,0,NA,1,900.0000000000001,900.0000000000001,1800.0000000000002,20
117_pomper_saffran_2016_43,3,shovel,43,117,shovel,target,106,0,1,NA,1,NA,1,NA,0,1766.6666666666667,1766.6666666666667,3533.3333333333335,18
117_pomper_saffran_2016_43,6,comb,43,117,comb,target,41,51,0.44565217391304346,NA,2,NA,0,NA,3,275,250.00000000000003,600,18
118_pomper_saffran_2016_42,2,boot,42,118,boot,target,106,0,1,NA,1,NA,1,NA,0,1766.6666666666667,1766.6666666666667,3533.3333333333335,17
118_pomper_saffran_2016_42,6,puzzle,42,118,puzzle,target,106,0,1,NA,1,NA,1,NA,0,1766.6666666666667,1766.6666666666667,3533.3333333333335,17
118_pomper_saffran_2016_42,8,chalk,42,118,chalk,target,81,16,0.8350515463917526,NA,2,NA,0,NA,2,675,200,2300,17
119_pomper_saffran_2016_43,9,donut,43,119,donut,target,106,0,1,NA,1,NA,1,NA,0,1766.6666666666667,1766.6666666666667,3533.3333333333335,18
119_pomper_saffran_2016_43,10,muffin,43,119,muffin,target,106,0,1,NA,1,NA,1,NA,0,1766.6666666666667,1766.6666666666667,3533.3333333333335,18
119_pomper_saffran_2016_43,12,plate,43,119,plate,target,89,10,0.898989898989899,NA,1,NA,0,NA,0,1366.6666666666667,1366.6666666666667,2733.3333333333335,18
119_pomper_saffran_2016_43,13,lamp,43,119,lamp,target,36,62,0.3673469387755102,NA,2,NA,0,NA,3,300,283.33333333333337,633.3333333333334,18
120_pomper_saffran_2016_42,1,chalk,42,120,chalk,target,51,45,0.53125,NA,2,NA,0,NA,2,425,216.66666666666669,1266.6666666666667,17
120_pomper_saffran_2016_42,7,hammer,42,120,hammer,target,61,35,0.6354166666666666,NA,1,NA,1,NA,1,1016.6666666666667,1016.6666666666667,2033.3333333333335,17
121_pomper_saffran_2016_42,9,slide,42,121,slide,target,106,0,1,NA,1,NA,1,NA,0,1766.6666666666667,1766.6666666666667,3533.3333333333335,17
121_pomper_saffran_2016_42,12,flag,42,121,flag,target,56,47,0.5436893203883495,NA,1,NA,1,NA,1,933.3333333333334,933.3333333333334,1866.6666666666667,17
121_pomper_saffran_2016_42,13,belt,42,121,belt,target,104,0,1,NA,1,NA,1,NA,0,1733.3333333333335,1733.3333333333335,3466.666666666667,17
121_pomper_saffran_2016_42,15,dress,42,121,dress,target,72,0,1,NA,2,NA,1,NA,0,600,816.6666666666667,1633.3333333333335,17
122_pomper_saffran_2016_44,11,bib,44,122,bib,target,106,0,1,NA,1,NA,1,NA,0,1766.6666666666667,1766.6666666666667,3533.3333333333335,19
122_pomper_saffran_2016_44,15,shorts,44,122,shorts,target,78,12,0.8666666666666667,NA,2,NA,1,NA,2,650,1000.0000000000001,2000.0000000000002,19
123_pomper_saffran_2016_43,2,puzzle,43,123,puzzle,target,106,0,1,NA,1,NA,1,NA,0,1766.6666666666667,1766.6666666666667,3533.3333333333335,18
123_pomper_saffran_2016_43,4,dress,43,123,dress,target,39,57,0.40625,NA,2,NA,0,NA,1,325,250.00000000000003,800,18
124_pomper_saffran_2016_42,11,belt,42,124,belt,target,78,23,0.7722772277227723,NA,1,NA,0,NA,1,1116.6666666666667,1116.6666666666667,2233.3333333333335,17
124_pomper_saffran_2016_42,13,ladder,42,124,ladder,target,106,0,1,NA,1,NA,1,NA,0,1766.6666666666667,1766.6666666666667,3533.3333333333335,17
125_pomper_saffran_2016_43,1,donut,43,125,donut,target,83,0,1,NA,2,NA,1,NA,0,691.6666666666667,416.6666666666667,1933.3333333333335,18
125_pomper_saffran_2016_43,4,plate,43,125,plate,target,96,7,0.9320388349514563,NA,1,NA,1,NA,0,1600,1600,3200,18
125_pomper_saffran_2016_43,7,bucket,43,125,bucket,target,106,0,1,NA,1,NA,1,NA,0,1766.6666666666667,1766.6666666666667,3533.3333333333335,18
126_pomper_saffran_2016_44,9,pudding,44,126,pudding,target,80,20,0.8,NA,1,NA,0,NA,1,1183.3333333333335,1183.3333333333335,2366.666666666667,19
126_pomper_saffran_2016_44,13,flag,44,126,flag,target,52,45,0.5360824742268041,NA,2,NA,0,NA,3,433.33333333333337,333.33333333333337,1066.6666666666667,19
127_pomper_saffran_2016_41,2,sock,41,127,sock,target,106,0,1,NA,1,NA,1,NA,0,1766.6666666666667,1766.6666666666667,3533.3333333333335,16
127_pomper_saffran_2016_41,6,bib,41,127,bib,target,76,24,0.76,NA,2,NA,0,NA,2,633.3333333333334,483.33333333333337,1566.6666666666667,16
127_pomper_saffran_2016_41,7,necklace,41,127,necklace,target,63,41,0.6057692307692307,NA,1,NA,1,NA,1,1050,1050,2100,16
127_pomper_saffran_2016_41,8,scissors,41,127,scissors,target,81,0,1,NA,1,NA,1,NA,0,1350,1350,2700,16
128_pomper_saffran_2016_47,1,can,47,128,can,target,84,16,0.84,NA,1,NA,0,NA,1,1316.6666666666667,1316.6666666666667,2633.3333333333335,22
128_pomper_saffran_2016_47,2,necklace,47,128,necklace,target,86,16,0.8431372549019608,NA,1,NA,0,NA,1,1316.6666666666667,1316.6666666666667,2633.3333333333335,22
128_pomper_saffran_2016_47,5,glove,47,128,glove,target,80,22,0.7843137254901961,NA,2,NA,1,NA,2,666.6666666666667,1050,2100,22
128_pomper_saffran_2016_47,8,hose,47,128,hose,target,106,0,1,NA,1,NA,1,NA,0,1766.6666666666667,1766.6666666666667,3533.3333333333335,22
129_pomper_saffran_2016_45,9,bucket,45,129,bucket,target,79,15,0.8404255319148937,NA,1,NA,0,NA,1,1166.6666666666667,1166.6666666666667,2333.3333333333335,20
129_pomper_saffran_2016_45,11,hose,45,129,hose,target,106,0,1,NA,1,NA,1,NA,0,1766.6666666666667,1766.6666666666667,3533.3333333333335,20
129_pomper_saffran_2016_45,15,necklace,45,129,necklace,target,52,48,0.52,NA,1,NA,0,NA,1,783.3333333333334,783.3333333333334,1566.6666666666667,20
129_pomper_saffran_2016_45,16,scissors,45,129,scissors,target,106,0,1,NA,1,NA,1,NA,0,1766.6666666666667,1766.6666666666667,3533.3333333333335,20
130_pomper_saffran_2016_44,1,slide,44,130,slide,target,106,0,1,NA,1,NA,1,NA,0,1766.6666666666667,1766.6666666666667,3533.3333333333335,19
130_pomper_saffran_2016_44,2,knife,44,130,knife,target,106,0,1,NA,1,NA,1,NA,0,1766.6666666666667,1766.6666666666667,3533.3333333333335,19
130_pomper_saffran_2016_44,6,tape,44,130,tape,target,106,0,1,NA,1,NA,1,NA,0,1766.6666666666667,1766.6666666666667,3533.3333333333335,19
130_pomper_saffran_2016_44,8,pudding,44,130,pudding,target,38,63,0.37623762376237624,NA,1,NA,0,NA,1,516.6666666666667,516.6666666666667,1033.3333333333335,19
131_pomper_saffran_2016_42,9,shorts,42,131,shorts,target,86,12,0.8775510204081632,NA,1,NA,0,NA,1,1316.6666666666667,1316.6666666666667,2633.3333333333335,17
131_pomper_saffran_2016_42,11,shovel,42,131,shovel,target,106,0,1,NA,1,NA,1,NA,0,1766.6666666666667,1766.6666666666667,3533.3333333333335,17
131_pomper_saffran_2016_42,14,comb,42,131,comb,target,106,0,1,NA,1,NA,1,NA,0,1766.6666666666667,1766.6666666666667,3533.3333333333335,17
131_pomper_saffran_2016_42,16,plate,42,131,plate,target,106,0,1,NA,1,NA,1,NA,0,1766.6666666666667,1766.6666666666667,3533.3333333333335,17
132_pomper_saffran_2016_41,1,crib,41,132,crib,target,90,10,0.9,NA,2,NA,0,NA,0,750.0000000000001,266.6666666666667,2466.666666666667,16
132_pomper_saffran_2016_41,2,boot,41,132,boot,target,106,0,1,NA,1,NA,1,NA,0,1766.6666666666667,1766.6666666666667,3533.3333333333335,16
132_pomper_saffran_2016_41,6,puzzle,41,132,puzzle,target,106,0,1,NA,1,NA,1,NA,0,1766.6666666666667,1766.6666666666667,3533.3333333333335,16
133_pomper_saffran_2016_45,9,slide,45,133,slide,target,106,0,1,NA,1,NA,1,NA,0,1766.6666666666667,1766.6666666666667,3533.3333333333335,20
133_pomper_saffran_2016_45,13,belt,45,133,belt,target,88,0,1,NA,1,NA,1,NA,0,1466.6666666666667,1466.6666666666667,2933.3333333333335,20
133_pomper_saffran_2016_45,15,dress,45,133,dress,target,12,53,0.18461538461538463,NA,1,NA,0,NA,1,200,200,400,20
