recording_name,trial_number,target_word,age_months,subject_id,media_name,initial_look,samples_target,samples_distractor,prop_looking,prop_looking_diff,number_fixations,correct_shift,remain_on_target,latency_to_switch,total_aoi_switches,duration_of_look,first_look_dur,longest_look_by_trial,age_months_centred
108_pomper_saffran_2016_46,1,orange,46,108,orange,neither,87,15,0.8529411764705882,NA,2,NA,NA,NA,2,725,750,1500,21
108_pomper_saffran_2016_46,2,red,46,108,red,target,87,17,0.8365384615384616,NA,1,NA,1,NA,1,1450,1450,2900,21
108_pomper_saffran_2016_46,3,yellow,46,108,yellow,target,106,0,1,0.6603773584905661,1,NA,1,NA,0,1766.6666666666667,1766.6666666666667,3533.3333333333335,21
108_pomper_saffran_2016_46,4,white,46,108,white,distractor,77,22,0.7777777777777778,0.5754716981132075,1,1,NA,615,1,1283.3333333333335,1283.3333333333335,2566.666666666667,21
108_pomper_saffran_2016_46,5,red,46,108,red,distractor,101,3,0.9711538461538461,NA,1,1,NA,140,0,1683.3333333333335,1683.3333333333335,3366.666666666667,21
108_pomper_saffran_2016_46,6,black,46,108,black,distractor,69,36,0.6571428571428571,0.6509433962264151,1,1,NA,940,1,1150,1150,2300,21
108_pomper_saffran_2016_46,7,orange,46,108,orange,target,59,0,1,NA,1,NA,1,NA,0,983.3333333333334,983.3333333333334,1966.6666666666667,21
108_pomper_saffran_2016_46,8,brown,46,108,brown,neither,83,16,0.8383838383838383,0.5754716981132075,1,NA,NA,NA,1,1316.6666666666667,1316.6666666666667,2633.3333333333335,21
109_pomper_saffran_2016_43,9,green,43,109,green,distractor,88,9,0.9072164948453608,NA,2,1,NA,140,0,733.3333333333334,500.00000000000006,1933.3333333333335,18
109_pomper_saffran_2016_43,10,blue,43,109,blue,target,86,14,0.86,NA,1,NA,0,NA,1,1433.3333333333335,1433.3333333333335,2866.666666666667,18
109_pomper_saffran_2016_43,11,black,43,109,black,target,106,0,1,0.7641509433962264,1,NA,1,NA,0,1766.6666666666667,1766.6666666666667,3533.3333333333335,18
109_pomper_saffran_2016_43,12,brown,43,109,brown,distractor,86,17,0.8349514563106796,0.3584905660377359,1,1,NA,515,1,1433.3333333333335,1433.3333333333335,2866.666666666667,18
109_pomper_saffran_2016_43,13,yellow,43,109,yellow,target,77,25,0.7549019607843137,0.7264150943396226,1,NA,1,NA,1,1283.3333333333335,1283.3333333333335,2566.666666666667,18
109_pomper_saffran_2016_43,14,green,43,109,green,distractor,91,12,0.883495145631068,NA,1,1,NA,390,1,1516.6666666666667,1516.6666666666667,3033.3333333333335,18
109_pomper_saffran_2016_43,15,white,43,109,white,distractor,54,48,0.5294117647058824,0.34905660377358494,1,1,NA,540,2,900.0000000000001,900.0000000000001,1800.0000000000002,18
109_pomper_saffran_2016_43,16,blue,43,109,blue,distractor,101,3,0.9711538461538461,NA,1,1,NA,140,0,1683.3333333333335,1683.3333333333335,3366.666666666667,18
110_pomper_saffran_2016_47,1,blue,47,110,blue,target,56,34,0.6222222222222222,NA,1,NA,0,NA,1,933.3333333333334,933.3333333333334,1866.6666666666667,22
110_pomper_saffran_2016_47,2,green,47,110,green,target,58,0,1,NA,2,NA,1,NA,0,483.33333333333337,350,1233.3333333333335,22
110_pomper_saffran_2016_47,3,black,47,110,black,distractor,70,33,0.6796116504854369,0.660377358490566,1,1,NA,915,1,1166.6666666666667,1166.6666666666667,2333.3333333333335,22
110_pomper_saffran_2016_47,4,brown,47,110,brown,distractor,98,4,0.9607843137254902,0.46226415094339623,1,1,NA,215,0,1633.3333333333335,1633.3333333333335,3266.666666666667,22
110_pomper_saffran_2016_47,5,green,47,110,green,target,106,0,1,NA,1,NA,1,NA,0,1766.6666666666667,1766.6666666666667,3533.3333333333335,22
110_pomper_saffran_2016_47,6,yellow,47,110,yellow,distractor,103,0,1,0.6603773584905661,1,1,NA,90,0,1716.6666666666667,1716.6666666666667,3433.3333333333335,22
110_pomper_saffran_2016_47,7,blue,47,110,blue,distractor,105,0,1,NA,1,1,NA,40,0,1750.0000000000002,1750.0000000000002,3500.0000000000005,22
110_pomper_saffran_2016_47,8,white,47,110,white,target,53,49,0.5196078431372549,0.46226415094339623,1,NA,0,NA,1,883.3333333333334,883.3333333333334,1766.6666666666667,22
111_pomper_saffran_2016_42,9,red,42,111,red,distractor,86,17,0.8349514563106796,NA,1,1,NA,515,1,1433.3333333333335,1433.3333333333335,2866.666666666667,17
111_pomper_saffran_2016_42,10,orange,42,111,orange,target,82,18,0.82,NA,1,NA,0,NA,1,1300,1300,2600,17
111_pomper_saffran_2016_42,11,yellow,42,111,yellow,neither,91,0,1,0.6132075471698113,1,NA,NA,NA,0,1516.6666666666667,1516.6666666666667,3033.3333333333335,17
111_pomper_saffran_2016_42,12,white,42,111,white,target,53,44,0.5463917525773195,0.39622641509433965,2,NA,0,NA,1,441.6666666666667,400,966.6666666666667,17
111_pomper_saffran_2016_42,13,black,42,111,black,distractor,68,26,0.723404255319149,0.6415094339622641,1,1,NA,340,1,1133.3333333333335,1133.3333333333335,2266.666666666667,17
111_pomper_saffran_2016_42,14,red,42,111,red,target,79,21,0.79,NA,2,NA,0,NA,2,658.3333333333334,333.33333333333337,1966.6666666666667,17
111_pomper_saffran_2016_42,15,brown,42,111,brown,target,90,11,0.8910891089108911,0.4339622641509434,1,NA,0,NA,0,1383.3333333333335,1383.3333333333335,2766.666666666667,17
111_pomper_saffran_2016_42,16,orange,42,111,orange,neither,28,66,0.2978723404255319,NA,1,NA,NA,NA,2,300,300,600,17
112_pomper_saffran_2016_43,1,orange,43,112,orange,target,106,0,1,NA,1,NA,1,NA,0,1766.6666666666667,1766.6666666666667,3533.3333333333335,18
112_pomper_saffran_2016_43,2,red,43,112,red,neither,92,11,0.8932038834951457,NA,1,NA,NA,NA,0,1533.3333333333335,1533.3333333333335,3066.666666666667,18
112_pomper_saffran_2016_43,3,yellow,43,112,yellow,distractor,61,0,1,0.5754716981132075,1,1,NA,90,0,1016.6666666666667,1016.6666666666667,2033.3333333333335,18
112_pomper_saffran_2016_43,4,white,43,112,white,distractor,45,33,0.5769230769230769,0.28301886792452835,1,1,NA,115,1,750,750,1500,18
112_pomper_saffran_2016_43,5,red,43,112,red,target,97,4,0.9603960396039604,NA,1,NA,0,NA,0,1616.6666666666667,1616.6666666666667,3233.3333333333335,18
112_pomper_saffran_2016_43,6,black,43,112,black,neither,105,0,1,0.9905660377358491,1,NA,NA,NA,0,1750.0000000000002,1750.0000000000002,3500.0000000000005,18
112_pomper_saffran_2016_43,7,orange,43,112,orange,target,96,0,1,NA,1,NA,1,NA,0,1600,1600,3200,18
112_pomper_saffran_2016_43,8,brown,43,112,brown,distractor,75,15,0.8333333333333334,0.3962264150943396,1,1,NA,140,1,1250,1250,2500,18
113_pomper_saffran_2016_42,1,green,42,113,green,distractor,87,16,0.8446601941747572,NA,1,1,NA,490,1,1450,1450,2900,17
113_pomper_saffran_2016_42,2,blue,42,113,blue,neither,67,13,0.8375,NA,1,NA,NA,NA,1,1116.6666666666667,1116.6666666666667,2233.3333333333335,17
113_pomper_saffran_2016_42,3,black,42,113,black,distractor,83,20,0.8058252427184466,0.7169811320754718,1,1,NA,590,1,1383.3333333333335,1383.3333333333335,2766.666666666667,17
113_pomper_saffran_2016_42,4,brown,42,113,brown,distractor,40,34,0.5405405405405406,-0.12264150943396224,1,1,NA,190,1,666.6666666666667,666.6666666666667,1333.3333333333335,17
113_pomper_saffran_2016_42,5,yellow,42,113,yellow,target,77,7,0.9166666666666666,0.5377358490566038,1,NA,0,NA,0,1283.3333333333335,1283.3333333333335,2566.666666666667,17
113_pomper_saffran_2016_42,6,green,42,113,green,neither,67,24,0.7362637362637363,NA,1,NA,NA,NA,1,1116.6666666666667,1116.6666666666667,2233.3333333333335,17
113_pomper_saffran_2016_42,7,white,42,113,white,target,51,53,0.49038461538461536,0.16037735849056606,1,NA,0,NA,1,850.0000000000001,850.0000000000001,1700.0000000000002,17
113_pomper_saffran_2016_42,8,blue,42,113,blue,target,57,41,0.5816326530612245,NA,2,NA,0,NA,2,475,300,1300,17
114_pomper_saffran_2016_42,9,green,42,114,green,target,47,53,0.47,NA,1,NA,0,NA,1,650,650,1300,17
114_pomper_saffran_2016_42,10,blue,42,114,blue,distractor,41,63,0.3942307692307692,NA,1,0,NA,NA,1,683.3333333333334,683.3333333333334,1366.6666666666667,17
114_pomper_saffran_2016_42,11,black,42,114,black,target,103,0,1,0.8584905660377359,1,NA,1,NA,0,1716.6666666666667,1716.6666666666667,3433.3333333333335,17
114_pomper_saffran_2016_42,12,brown,42,114,brown,target,83,17,0.83,0.6415094339622642,1,NA,0,NA,1,1233.3333333333335,1233.3333333333335,2466.666666666667,17
114_pomper_saffran_2016_42,13,yellow,42,114,yellow,distractor,91,12,0.883495145631068,0.8584905660377359,1,1,NA,390,1,1516.6666666666667,1516.6666666666667,3033.3333333333335,17
114_pomper_saffran_2016_42,14,green,42,114,green,distractor,91,12,0.883495145631068,NA,1,1,NA,390,1,1516.6666666666667,1516.6666666666667,3033.3333333333335,17
114_pomper_saffran_2016_42,15,white,42,114,white,distractor,89,15,0.8557692307692307,0.679245283018868,1,1,NA,440,1,1483.3333333333335,1483.3333333333335,2966.666666666667,17
114_pomper_saffran_2016_42,16,blue,42,114,blue,target,80,20,0.8,NA,1,NA,0,NA,1,1183.3333333333335,1183.3333333333335,2366.666666666667,17
115_pomper_saffran_2016_42,9,orange,42,115,orange,distractor,89,15,0.8557692307692307,NA,1,1,NA,440,1,1483.3333333333335,1483.3333333333335,2966.666666666667,17
115_pomper_saffran_2016_42,10,red,42,115,red,distractor,82,21,0.7961165048543689,NA,1,1,NA,615,1,1366.6666666666667,1366.6666666666667,2733.3333333333335,17
115_pomper_saffran_2016_42,11,yellow,42,115,yellow,distractor,82,21,0.7961165048543689,0.339622641509434,1,1,NA,615,1,1366.6666666666667,1366.6666666666667,2733.3333333333335,17
115_pomper_saffran_2016_42,12,white,42,115,white,distractor,66,32,0.673469387755102,0.4716981132075472,1,1,NA,340,1,1100,1100,2200,17
115_pomper_saffran_2016_42,13,red,42,115,red,target,106,0,1,NA,1,NA,1,NA,0,1766.6666666666667,1766.6666666666667,3533.3333333333335,17
115_pomper_saffran_2016_42,14,black,42,115,black,distractor,51,46,0.5257731958762887,0.2830188679245283,1,1,NA,815,2,850.0000000000001,850.0000000000001,1700.0000000000002,17
115_pomper_saffran_2016_42,15,orange,42,115,orange,target,67,28,0.7052631578947368,NA,1,NA,0,NA,1,1016.6666666666667,1016.6666666666667,2033.3333333333335,17
115_pomper_saffran_2016_42,16,brown,42,115,brown,target,85,16,0.8415841584158416,0.5,1,NA,0,NA,1,1233.3333333333335,1233.3333333333335,2466.666666666667,17
116_pomper_saffran_2016_45,1,red,45,116,red,target,91,9,0.91,NA,1,NA,0,NA,0,1450,1450,2900,20
116_pomper_saffran_2016_45,2,orange,45,116,orange,distractor,96,1,0.9896907216494846,NA,1,1,NA,115,0,1600,1600,3200,20
116_pomper_saffran_2016_45,3,yellow,45,116,yellow,distractor,101,3,0.9711538461538461,0.37735849056603776,1,1,NA,140,0,1683.3333333333335,1683.3333333333335,3366.666666666667,20
116_pomper_saffran_2016_45,4,white,45,116,white,distractor,101,0,1,0.6415094339622642,1,1,NA,140,0,1683.3333333333335,1683.3333333333335,3366.666666666667,20
116_pomper_saffran_2016_45,5,black,45,116,black,neither,43,61,0.41346153846153844,0.37735849056603776,1,NA,NA,NA,1,716.6666666666667,716.6666666666667,1433.3333333333335,20
116_pomper_saffran_2016_45,6,red,45,116,red,target,106,0,1,NA,1,NA,1,NA,0,1766.6666666666667,1766.6666666666667,3533.3333333333335,20
116_pomper_saffran_2016_45,7,brown,45,116,brown,distractor,61,33,0.648936170212766,0.5754716981132075,2,1,NA,490,3,508.33333333333337,766.6666666666667,1533.3333333333335,20
116_pomper_saffran_2016_45,8,orange,45,116,orange,target,67,35,0.6568627450980392,NA,1,NA,1,NA,1,1116.6666666666667,1116.6666666666667,2233.3333333333335,20
117_pomper_saffran_2016_43,9,blue,43,117,blue,distractor,99,4,0.9611650485436893,NA,1,1,NA,190,0,1650.0000000000002,1650.0000000000002,3300.0000000000005,18
117_pomper_saffran_2016_43,10,green,43,117,green,distractor,102,1,0.9902912621359223,NA,1,1,NA,115,0,1700.0000000000002,1700.0000000000002,3400.0000000000005,18
117_pomper_saffran_2016_43,11,black,43,117,black,distractor,93,11,0.8942307692307693,0.8773584905660378,1,1,NA,340,0,1550,1550,3100,18
117_pomper_saffran_2016_43,12,brown,43,117,brown,distractor,99,4,0.9611650485436893,0.8867924528301887,1,1,NA,190,0,1650.0000000000002,1650.0000000000002,3300.0000000000005,18
117_pomper_saffran_2016_43,13,green,43,117,green,target,86,17,0.8349514563106796,NA,1,NA,0,NA,1,1433.3333333333335,1433.3333333333335,2866.666666666667,18
117_pomper_saffran_2016_43,14,yellow,43,117,yellow,target,106,0,1,0.8962264150943396,1,NA,1,NA,0,1766.6666666666667,1766.6666666666667,3533.3333333333335,18
117_pomper_saffran_2016_43,15,blue,43,117,blue,target,106,0,1,NA,1,NA,1,NA,0,1766.6666666666667,1766.6666666666667,3533.3333333333335,18
117_pomper_saffran_2016_43,16,white,43,117,white,target,68,5,0.9315068493150684,0.6037735849056604,1,NA,1,NA,0,1133.3333333333335,1133.3333333333335,2266.666666666667,18
118_pomper_saffran_2016_42,9,red,42,118,red,target,79,19,0.8061224489795918,NA,2,NA,0,NA,2,658.3333333333334,333.33333333333337,1966.6666666666667,17
118_pomper_saffran_2016_42,10,orange,42,118,orange,neither,83,17,0.83,NA,2,NA,NA,NA,2,691.6666666666667,816.6666666666667,1633.3333333333335,17
118_pomper_saffran_2016_42,11,yellow,42,118,yellow,neither,65,31,0.6770833333333334,0.6132075471698113,1,NA,NA,NA,1,916.6666666666667,916.6666666666667,1833.3333333333335,17
118_pomper_saffran_2016_42,12,white,42,118,white,target,42,55,0.4329896907216495,0.39622641509433965,1,NA,0,NA,1,516.6666666666667,516.6666666666667,1033.3333333333335,17
118_pomper_saffran_2016_42,13,black,42,118,black,neither,106,0,1,0.7075471698113207,1,NA,NA,NA,0,1766.6666666666667,1766.6666666666667,3533.3333333333335,17
118_pomper_saffran_2016_42,14,red,42,118,red,distractor,93,9,0.9117647058823529,NA,1,1,NA,340,0,1550,1550,3100,17
118_pomper_saffran_2016_42,15,brown,42,118,brown,target,106,0,1,0.4811320754716981,1,NA,1,NA,0,1766.6666666666667,1766.6666666666667,3533.3333333333335,17
118_pomper_saffran_2016_42,16,orange,42,118,orange,neither,36,20,0.6428571428571429,NA,2,NA,NA,NA,2,300,383.33333333333337,766.6666666666667,17
119_pomper_saffran_2016_43,2,black,43,119,black,target,105,0,1,NA,1,NA,1,NA,0,1750.0000000000002,1750.0000000000002,3500.0000000000005,18
119_pomper_saffran_2016_43,3,red,43,119,red,distractor,50,50,0.5,0.4056603773584906,1,1,NA,290,1,833.3333333333334,833.3333333333334,1666.6666666666667,18
119_pomper_saffran_2016_43,4,blue,43,119,blue,distractor,94,9,0.912621359223301,NA,1,1,NA,315,0,1566.6666666666667,1566.6666666666667,3133.3333333333335,18
119_pomper_saffran_2016_43,5,brown,43,119,brown,distractor,90,13,0.8737864077669902,NA,1,1,NA,415,1,1500,1500,3000,18
119_pomper_saffran_2016_43,6,blue,43,119,blue,target,106,0,1,NA,1,NA,1,NA,0,1766.6666666666667,1766.6666666666667,3533.3333333333335,18
119_pomper_saffran_2016_43,7,black,43,119,black,target,106,0,1,NA,1,NA,1,NA,0,1766.6666666666667,1766.6666666666667,3533.3333333333335,18
119_pomper_saffran_2016_43,8,green,43,119,green,distractor,97,7,0.9326923076923077,0.44339622641509435,1,1,NA,240,0,1616.6666666666667,1616.6666666666667,3233.3333333333335,18
120_pomper_saffran_2016_42,9,yellow,42,120,yellow,distractor,71,8,0.8987341772151899,NA,2,1,NA,290,0,591.6666666666667,366.6666666666667,1633.3333333333335,17
120_pomper_saffran_2016_42,10,brown,42,120,brown,neither,51,51,0.5,0.169811320754717,1,NA,NA,NA,1,850.0000000000001,850.0000000000001,1700.0000000000002,17
120_pomper_saffran_2016_42,11,red,42,120,red,target,24,71,0.25263157894736843,-0.40566037735849053,1,NA,0,NA,1,250.00000000000003,250.00000000000003,500.00000000000006,17
120_pomper_saffran_2016_42,12,orange,42,120,orange,target,51,7,0.8793103448275862,NA,1,NA,0,NA,0,733.3333333333334,733.3333333333334,1466.6666666666667,17
120_pomper_saffran_2016_42,13,white,42,120,white,distractor,62,33,0.6526315789473685,0.10377358490566035,1,1,NA,990,1,1033.3333333333335,1033.3333333333335,2066.666666666667,17
120_pomper_saffran_2016_42,15,green,42,120,green,distractor,32,67,0.32323232323232326,-0.36792452830188677,1,1,NA,640,2,533.3333333333334,533.3333333333334,1066.6666666666667,17
120_pomper_saffran_2016_42,16,yellow,42,120,yellow,distractor,22,55,0.2857142857142857,NA,1,0,NA,NA,1,366.6666666666667,366.6666666666667,733.3333333333334,17
121_pomper_saffran_2016_42,1,green,42,121,green,distractor,101,3,0.9711538461538461,NA,1,1,NA,140,0,1683.3333333333335,1683.3333333333335,3366.666666666667,17
121_pomper_saffran_2016_42,2,blue,42,121,blue,target,84,13,0.865979381443299,NA,1,NA,1,NA,1,1400,1400,2800,17
121_pomper_saffran_2016_42,3,black,42,121,black,distractor,93,11,0.8942307692307693,0.8773584905660378,1,1,NA,340,0,1550,1550,3100,17
121_pomper_saffran_2016_42,4,brown,42,121,brown,distractor,102,1,0.9902912621359223,0.8113207547169812,1,1,NA,115,0,1700.0000000000002,1700.0000000000002,3400.0000000000005,17
121_pomper_saffran_2016_42,5,yellow,42,121,yellow,target,106,0,1,0.8962264150943396,1,NA,1,NA,0,1766.6666666666667,1766.6666666666667,3533.3333333333335,17
121_pomper_saffran_2016_42,6,green,42,121,green,distractor,95,8,0.9223300970873787,NA,1,1,NA,290,0,1583.3333333333335,1583.3333333333335,3166.666666666667,17
121_pomper_saffran_2016_42,7,white,42,121,white,target,83,16,0.8383838383838383,0.7735849056603774,1,NA,0,NA,1,1250,1250,2500,17
121_pomper_saffran_2016_42,8,blue,42,121,blue,target,72,25,0.7422680412371134,NA,1,NA,0,NA,1,1066.6666666666667,1066.6666666666667,2133.3333333333335,17
122_pomper_saffran_2016_44,1,brown,44,122,brown,distractor,69,23,0.75,0.5943396226415094,2,1,NA,240,0,575,333.33333333333337,1633.3333333333335,19
122_pomper_saffran_2016_44,2,yellow,44,122,yellow,target,106,0,1,NA,1,NA,1,NA,0,1766.6666666666667,1766.6666666666667,3533.3333333333335,19
122_pomper_saffran_2016_44,3,green,44,122,green,distractor,56,43,0.5656565656565656,0.5283018867924528,1,1,NA,715,2,933.3333333333334,933.3333333333334,1866.6666666666667,19
122_pomper_saffran_2016_44,4,orange,44,122,orange,target,83,17,0.83,NA,1,NA,0,NA,1,1316.6666666666667,1316.6666666666667,2633.3333333333335,19
122_pomper_saffran_2016_44,5,white,44,122,white,target,95,6,0.9405940594059405,0.679245283018868,1,NA,1,NA,0,1583.3333333333335,1583.3333333333335,3166.666666666667,19
122_pomper_saffran_2016_44,6,orange,44,122,orange,distractor,38,64,0.37254901960784315,NA,1,1,NA,1040,2,633.3333333333334,633.3333333333334,1266.6666666666667,19
122_pomper_saffran_2016_44,7,yellow,44,122,yellow,distractor,82,20,0.803921568627451,NA,1,1,NA,615,1,1366.6666666666667,1366.6666666666667,2733.3333333333335,19
122_pomper_saffran_2016_44,8,red,44,122,red,target,106,0,1,0.5943396226415094,1,NA,1,NA,0,1766.6666666666667,1766.6666666666667,3533.3333333333335,19
123_pomper_saffran_2016_43,9,black,43,123,black,distractor,83,20,0.8058252427184466,NA,1,1,NA,590,1,1383.3333333333335,1383.3333333333335,2766.666666666667,18
123_pomper_saffran_2016_43,10,white,43,123,white,target,74,27,0.7326732673267327,0.5188679245283019,1,NA,0,NA,1,1083.3333333333335,1083.3333333333335,2166.666666666667,18
123_pomper_saffran_2016_43,11,green,43,123,green,target,68,32,0.68,0.4150943396226415,1,NA,1,NA,1,1050,1050,2100,18
123_pomper_saffran_2016_43,12,blue,43,123,blue,distractor,74,29,0.7184466019417476,NA,1,1,NA,815,1,1233.3333333333335,1233.3333333333335,2466.666666666667,18
123_pomper_saffran_2016_43,13,brown,43,123,brown,target,82,19,0.8118811881188119,0.5188679245283019,2,NA,0,NA,2,683.3333333333334,783.3333333333334,1566.6666666666667,18
123_pomper_saffran_2016_43,14,blue,43,123,blue,target,63,35,0.6428571428571429,NA,1,NA,0,NA,1,1050,1050,2100,18
123_pomper_saffran_2016_43,15,red,43,123,red,distractor,79,24,0.7669902912621359,0.4433962264150943,1,1,NA,690,1,1316.6666666666667,1316.6666666666667,2633.3333333333335,18
123_pomper_saffran_2016_43,16,black,43,123,black,target,106,0,1,NA,1,NA,1,NA,0,1766.6666666666667,1766.6666666666667,3533.3333333333335,18
124_pomper_saffran_2016_42,1,yellow,42,124,yellow,neither,55,25,0.6875,NA,2,NA,NA,NA,2,458.33333333333337,400,1033.3333333333335,17
124_pomper_saffran_2016_42,2,brown,42,124,brown,distractor,59,37,0.6145833333333334,NA,2,1,NA,190,2,491.66666666666674,566.6666666666667,1133.3333333333335,17
124_pomper_saffran_2016_42,3,red,42,124,red,distractor,62,7,0.8985507246376812,0.5849056603773585,2,1,NA,240,0,516.6666666666667,666.6666666666667,1333.3333333333335,17
124_pomper_saffran_2016_42,4,orange,42,124,orange,target,48,42,0.5333333333333333,NA,2,NA,0,NA,3,383.33333333333337,266.6666666666667,1000.0000000000001,17
124_pomper_saffran_2016_42,7,green,42,124,green,target,93,0,1,0.8113207547169812,2,NA,1,NA,0,775,800,1600,17
124_pomper_saffran_2016_42,8,yellow,42,124,yellow,distractor,94,9,0.912621359223301,NA,1,1,NA,315,0,1566.6666666666667,1566.6666666666667,3133.3333333333335,17
125_pomper_saffran_2016_43,9,white,43,125,white,target,106,0,1,1,1,NA,1,NA,0,1766.6666666666667,1766.6666666666667,3533.3333333333335,18
125_pomper_saffran_2016_43,10,black,43,125,black,distractor,77,27,0.7403846153846154,NA,1,1,NA,740,1,1283.3333333333335,1283.3333333333335,2566.666666666667,18
125_pomper_saffran_2016_43,11,red,43,125,red,target,106,0,1,0.9339622641509434,1,NA,1,NA,0,1766.6666666666667,1766.6666666666667,3533.3333333333335,18
125_pomper_saffran_2016_43,12,blue,43,125,blue,distractor,101,3,0.9711538461538461,NA,1,1,NA,140,0,1683.3333333333335,1683.3333333333335,3366.666666666667,18
125_pomper_saffran_2016_43,13,brown,43,125,brown,distractor,103,0,1,0.9716981132075472,1,1,NA,90,0,1716.6666666666667,1716.6666666666667,3433.3333333333335,18
125_pomper_saffran_2016_43,14,blue,43,125,blue,distractor,102,0,1,NA,1,1,NA,115,0,1700.0000000000002,1700.0000000000002,3400.0000000000005,18
125_pomper_saffran_2016_43,15,black,43,125,black,target,106,0,1,NA,1,NA,1,NA,0,1766.6666666666667,1766.6666666666667,3533.3333333333335,18
125_pomper_saffran_2016_43,16,green,43,125,green,distractor,97,7,0.9326923076923077,0.9150943396226415,1,1,NA,240,0,1616.6666666666667,1616.6666666666667,3233.3333333333335,18
126_pomper_saffran_2016_44,1,black,44,126,black,distractor,55,45,0.55,NA,2,1,NA,440,3,458.33333333333337,700,1400,19
126_pomper_saffran_2016_44,2,white,44,126,white,distractor,89,15,0.8557692307692307,0.7264150943396227,1,1,NA,440,1,1483.3333333333335,1483.3333333333335,2966.666666666667,19
126_pomper_saffran_2016_44,3,green,44,126,green,target,85,13,0.8673469387755102,0.33018867924528306,2,NA,0,NA,2,708.3333333333334,650,1533.3333333333335,19
126_pomper_saffran_2016_44,4,blue,44,126,blue,distractor,97,7,0.9326923076923077,NA,1,1,NA,240,0,1616.6666666666667,1616.6666666666667,3233.3333333333335,19
126_pomper_saffran_2016_44,5,brown,44,126,brown,target,89,12,0.8811881188118812,0.6981132075471699,1,NA,0,NA,1,1300,1300,2600,19
126_pomper_saffran_2016_44,6,blue,44,126,blue,target,106,0,1,NA,1,NA,1,NA,0,1766.6666666666667,1766.6666666666667,3533.3333333333335,19
126_pomper_saffran_2016_44,7,red,44,126,red,distractor,49,50,0.494949494949495,0.339622641509434,1,1,NA,515,2,816.6666666666667,816.6666666666667,1633.3333333333335,19
126_pomper_saffran_2016_44,8,black,44,126,black,target,64,39,0.6213592233009708,NA,1,NA,1,NA,1,1066.6666666666667,1066.6666666666667,2133.3333333333335,19
127_pomper_saffran_2016_41,9,orange,41,127,orange,distractor,77,25,0.7549019607843137,NA,1,1,NA,740,1,1283.3333333333335,1283.3333333333335,2566.666666666667,16
127_pomper_saffran_2016_41,10,red,41,127,red,target,74,26,0.74,NA,2,NA,0,NA,2,616.6666666666667,266.6666666666667,1933.3333333333335,16
127_pomper_saffran_2016_41,11,yellow,41,127,yellow,distractor,98,5,0.9514563106796117,0.8018867924528302,1,1,NA,215,0,1633.3333333333335,1633.3333333333335,3266.666666666667,16
127_pomper_saffran_2016_41,12,white,41,127,white,distractor,79,23,0.7745098039215687,0.5094339622641508,1,1,NA,690,1,1316.6666666666667,1316.6666666666667,2633.3333333333335,16
127_pomper_saffran_2016_41,13,red,41,127,red,distractor,90,15,0.8571428571428571,NA,1,1,NA,415,1,1500,1500,3000,16
127_pomper_saffran_2016_41,14,black,41,127,black,distractor,87,13,0.87,0.7735849056603774,1,1,NA,415,1,1450,1450,2900,16
127_pomper_saffran_2016_41,15,orange,41,127,orange,distractor,55,42,0.5670103092783505,NA,1,1,NA,840,2,916.6666666666667,916.6666666666667,1833.3333333333335,16
127_pomper_saffran_2016_41,16,brown,41,127,brown,distractor,78,25,0.7572815533980582,0.5188679245283019,1,1,NA,715,1,1300,1300,2600,16
128_pomper_saffran_2016_47,9,brown,47,128,brown,target,66,33,0.6666666666666666,0.17924528301886788,2,NA,0,NA,2,550,333.33333333333337,1533.3333333333335,22
128_pomper_saffran_2016_47,10,yellow,47,128,yellow,target,74,25,0.7474747474747475,NA,2,NA,0,NA,2,616.6666666666667,733.3333333333334,1466.6666666666667,22
128_pomper_saffran_2016_47,11,green,47,128,green,distractor,90,13,0.8737864077669902,0.7641509433962265,1,1,NA,415,1,1500,1500,3000,22
128_pomper_saffran_2016_47,12,orange,47,128,orange,target,106,0,1,NA,1,NA,1,NA,0,1766.6666666666667,1766.6666666666667,3533.3333333333335,22
128_pomper_saffran_2016_47,13,white,47,128,white,target,53,47,0.53,0.18867924528301888,1,NA,0,NA,1,883.3333333333334,883.3333333333334,1766.6666666666667,22
128_pomper_saffran_2016_47,14,orange,47,128,orange,distractor,98,5,0.9514563106796117,NA,1,1,NA,215,0,1633.3333333333335,1633.3333333333335,3266.666666666667,22
128_pomper_saffran_2016_47,15,yellow,47,128,yellow,target,76,24,0.76,NA,1,NA,0,NA,1,1150,1150,2300,22
128_pomper_saffran_2016_47,16,red,47,128,red,distractor,94,9,0.912621359223301,0.7641509433962265,1,1,NA,315,0,1566.6666666666667,1566.6666666666667,3133.3333333333335,22
129_pomper_saffran_2016_45,1,orange,45,129,orange,distractor,87,16,0.8446601941747572,NA,1,1,NA,490,1,1450,1450,2900,20
129_pomper_saffran_2016_45,2,red,45,129,red,distractor,67,4,0.9436619718309859,NA,2,1,NA,215,0,558.3333333333334,666.6666666666667,1333.3333333333335,20
129_pomper_saffran_2016_45,3,yellow,45,129,yellow,target,73,25,0.7448979591836735,0.6132075471698113,1,NA,0,NA,1,1150,1150,2300,20
129_pomper_saffran_2016_45,4,white,45,129,white,target,78,0,1,0.48113207547169806,2,NA,1,NA,0,650,816.6666666666667,1633.3333333333335,20
129_pomper_saffran_2016_45,5,red,45,129,red,distractor,97,7,0.9326923076923077,NA,1,1,NA,240,0,1616.6666666666667,1616.6666666666667,3233.3333333333335,20
129_pomper_saffran_2016_45,6,black,45,129,black,distractor,95,8,0.9223300970873787,0.6603773584905661,1,1,NA,290,0,1583.3333333333335,1583.3333333333335,3166.666666666667,20
129_pomper_saffran_2016_45,7,orange,45,129,orange,target,59,0,1,NA,1,NA,1,NA,0,983.3333333333334,983.3333333333334,1966.6666666666667,20
129_pomper_saffran_2016_45,8,brown,45,129,brown,target,39,27,0.5909090909090909,0.36792452830188677,1,NA,0,NA,1,650,650,1300,20
130_pomper_saffran_2016_44,10,blue,44,130,blue,distractor,79,24,0.7669902912621359,NA,1,1,NA,690,1,1316.6666666666667,1316.6666666666667,2633.3333333333335,19
130_pomper_saffran_2016_44,11,black,44,130,black,distractor,62,41,0.6019417475728155,0.5849056603773585,1,1,NA,1115,1,1033.3333333333335,1033.3333333333335,2066.666666666667,19
130_pomper_saffran_2016_44,12,brown,44,130,brown,target,106,0,1,1,1,NA,1,NA,0,1766.6666666666667,1766.6666666666667,3533.3333333333335,19
130_pomper_saffran_2016_44,13,yellow,44,130,yellow,target,106,0,1,0.6132075471698113,1,NA,1,NA,0,1766.6666666666667,1766.6666666666667,3533.3333333333335,19
130_pomper_saffran_2016_44,14,green,44,130,green,target,75,27,0.7352941176470589,NA,2,NA,0,NA,2,625,483.33333333333337,1533.3333333333335,19
130_pomper_saffran_2016_44,15,white,44,130,white,distractor,103,0,1,0.9716981132075472,1,1,NA,90,0,1716.6666666666667,1716.6666666666667,3433.3333333333335,19
130_pomper_saffran_2016_44,16,blue,44,130,blue,target,105,0,1,NA,1,NA,1,NA,0,1750.0000000000002,1750.0000000000002,3500.0000000000005,19
131_pomper_saffran_2016_42,1,blue,42,131,blue,distractor,86,16,0.8431372549019608,NA,1,1,NA,515,1,1433.3333333333335,1433.3333333333335,2866.666666666667,17
131_pomper_saffran_2016_42,2,green,42,131,green,target,106,0,1,NA,1,NA,1,NA,0,1766.6666666666667,1766.6666666666667,3533.3333333333335,17
131_pomper_saffran_2016_42,3,black,42,131,black,target,106,0,1,1,1,NA,1,NA,0,1766.6666666666667,1766.6666666666667,3533.3333333333335,17
131_pomper_saffran_2016_42,4,brown,42,131,brown,distractor,57,8,0.8769230769230769,0.4716981132075472,2,1,NA,290,0,475,633.3333333333334,1266.6666666666667,17
131_pomper_saffran_2016_42,5,green,42,131,green,distractor,86,3,0.9662921348314607,NA,2,1,NA,190,0,716.6666666666667,1066.6666666666667,2133.3333333333335,17
131_pomper_saffran_2016_42,6,yellow,42,131,yellow,target,106,0,1,1,1,NA,1,NA,0,1766.6666666666667,1766.6666666666667,3533.3333333333335,17
131_pomper_saffran_2016_42,7,blue,42,131,blue,distractor,101,3,0.9711538461538461,NA,1,1,NA,140,0,1683.3333333333335,1683.3333333333335,3366.666666666667,17
131_pomper_saffran_2016_42,8,white,42,131,white,target,95,7,0.9313725490196079,0.8207547169811321,1,NA,1,NA,0,1583.3333333333335,1583.3333333333335,3166.666666666667,17
132_pomper_saffran_2016_41,9,red,41,132,red,distractor,83,20,0.8058252427184466,NA,1,1,NA,590,1,1383.3333333333335,1383.3333333333335,2766.666666666667,16
132_pomper_saffran_2016_41,10,orange,41,132,orange,target,106,0,1,NA,1,NA,1,NA,0,1766.6666666666667,1766.6666666666667,3533.3333333333335,16
132_pomper_saffran_2016_41,11,yellow,41,132,yellow,target,106,0,1,0.9622641509433962,1,NA,1,NA,0,1766.6666666666667,1766.6666666666667,3533.3333333333335,16
132_pomper_saffran_2016_41,12,white,41,132,white,target,75,25,0.75,0.7075471698113207,1,NA,0,NA,1,1183.3333333333335,1183.3333333333335,2366.666666666667,16
132_pomper_saffran_2016_41,13,black,41,132,black,distractor,97,4,0.9603960396039604,0.9150943396226415,1,1,NA,240,0,1616.6666666666667,1616.6666666666667,3233.3333333333335,16
132_pomper_saffran_2016_41,14,red,41,132,red,distractor,48,48,0.5,NA,2,1,NA,115,2,400.00000000000006,283.33333333333337,1033.3333333333335,16
132_pomper_saffran_2016_41,15,brown,41,132,brown,distractor,104,0,1,0.7452830188679245,1,1,NA,40,0,1733.3333333333335,1733.3333333333335,3466.666666666667,16
132_pomper_saffran_2016_41,16,orange,41,132,orange,distractor,98,5,0.9514563106796117,NA,1,1,NA,215,0,1633.3333333333335,1633.3333333333335,3266.666666666667,16
133_pomper_saffran_2016_45,1,green,45,133,green,distractor,77,19,0.8020833333333334,NA,2,1,NA,190,2,641.6666666666667,566.6666666666667,1433.3333333333335,20
133_pomper_saffran_2016_45,2,blue,45,133,blue,neither,36,23,0.6101694915254238,NA,1,NA,NA,NA,1,466.6666666666667,466.6666666666667,933.3333333333334,20
133_pomper_saffran_2016_45,3,black,45,133,black,distractor,62,37,0.6262626262626263,NA,2,1,NA,115,2,516.6666666666667,483.33333333333337,1100,20
133_pomper_saffran_2016_45,4,brown,45,133,brown,target,84,18,0.8235294117647058,-0.2075471698113207,1,NA,0,NA,1,1283.3333333333335,1283.3333333333335,2566.666666666667,20
133_pomper_saffran_2016_45,6,green,45,133,green,target,78,18,0.8125,NA,1,NA,1,NA,1,1200,1200,2400,20
133_pomper_saffran_2016_45,7,white,45,133,white,distractor,0,106,0,-0.16981132075471697,NA,0,NA,NA,0,NA,NA,NA,20
133_pomper_saffran_2016_45,8,blue,45,133,blue,neither,60,12,0.8333333333333334,NA,1,NA,NA,NA,1,1000.0000000000001,1000.0000000000001,2000.0000000000002,20
134_pomper_saffran_2016_44,9,orange,44,134,orange,distractor,85,19,0.8173076923076923,NA,1,1,NA,540,1,1416.6666666666667,1416.6666666666667,2833.3333333333335,19
134_pomper_saffran_2016_44,10,red,44,134,red,distractor,65,30,0.6842105263157895,NA,1,1,NA,590,1,1083.3333333333335,1083.3333333333335,2166.666666666667,19
134_pomper_saffran_2016_44,11,yellow,44,134,yellow,neither,84,8,0.9130434782608695,0.6509433962264152,1,NA,NA,NA,0,1400,1400,2800,19
134_pomper_saffran_2016_44,12,white,44,134,white,neither,76,24,0.76,0.4150943396226415,1,NA,NA,NA,1,1100,1100,2200,19
134_pomper_saffran_2016_44,13,red,44,134,red,target,55,49,0.5288461538461539,NA,1,NA,0,NA,1,916.6666666666667,916.6666666666667,1833.3333333333335,19
134_pomper_saffran_2016_44,14,black,44,134,black,distractor,89,15,0.8557692307692307,0.7641509433962265,1,1,NA,440,1,1483.3333333333335,1483.3333333333335,2966.666666666667,19
134_pomper_saffran_2016_44,15,orange,44,134,orange,distractor,79,24,0.7669902912621359,NA,1,1,NA,690,1,1316.6666666666667,1316.6666666666667,2633.3333333333335,19
134_pomper_saffran_2016_44,16,brown,44,134,brown,target,67,32,0.6767676767676768,0.40566037735849053,2,NA,0,NA,2,558.3333333333334,616.6666666666667,1233.3333333333335,19
135_pomper_saffran_2016_46,1,red,46,135,red,target,79,0,1,NA,2,NA,1,NA,0,658.3333333333334,1066.6666666666667,2133.3333333333335,21
135_pomper_saffran_2016_46,3,yellow,46,135,yellow,distractor,93,11,0.8942307692307693,0.6603773584905661,1,1,NA,340,0,1550,1550,3100,21
135_pomper_saffran_2016_46,4,white,46,135,white,target,55,0,1,0.169811320754717,1,NA,1,NA,0,750,750,1500,21
135_pomper_saffran_2016_46,5,black,46,135,black,distractor,75,23,0.7653061224489796,0.6037735849056604,2,1,NA,390,1,625,633.3333333333334,1266.6666666666667,21
135_pomper_saffran_2016_46,6,red,46,135,red,neither,52,45,0.5360824742268041,NA,1,NA,NA,NA,1,866.6666666666667,866.6666666666667,1733.3333333333335,21
135_pomper_saffran_2016_46,7,brown,46,135,brown,target,61,37,0.6224489795918368,0.5754716981132075,2,NA,0,NA,2,508.33333333333337,400,1233.3333333333335,21
135_pomper_saffran_2016_46,8,orange,46,135,orange,neither,59,36,0.6210526315789474,NA,1,NA,NA,NA,1,866.6666666666667,866.6666666666667,1733.3333333333335,21
136_pomper_saffran_2016_42,1,red,42,136,red,target,82,16,0.8367346938775511,NA,2,NA,0,NA,2,683.3333333333334,400,1933.3333333333335,17
136_pomper_saffran_2016_42,2,orange,42,136,orange,target,92,10,0.9019607843137255,NA,1,NA,1,NA,0,1533.3333333333335,1533.3333333333335,3066.666666666667,17
136_pomper_saffran_2016_42,3,yellow,42,136,yellow,target,62,38,0.62,0.36792452830188677,2,NA,0,NA,2,516.6666666666666,800,1600,17
136_pomper_saffran_2016_42,4,white,42,136,white,distractor,105,0,1,0.6415094339622642,1,1,NA,40,0,1750.0000000000002,1750.0000000000002,3500.0000000000005,17
136_pomper_saffran_2016_42,5,black,42,136,black,target,70,23,0.7526881720430108,0.3018867924528302,2,NA,0,NA,2,583.3333333333334,600,1200,17
136_pomper_saffran_2016_42,6,red,42,136,red,distractor,97,5,0.9509803921568627,NA,1,1,NA,240,0,1616.6666666666667,1616.6666666666667,3233.3333333333335,17
136_pomper_saffran_2016_42,7,brown,42,136,brown,distractor,64,37,0.6336633663366337,0.6037735849056604,1,1,NA,490,2,1066.6666666666667,1066.6666666666667,2133.3333333333335,17
136_pomper_saffran_2016_42,8,orange,42,136,orange,distractor,43,50,0.46236559139784944,NA,2,1,NA,240,2,358.33333333333337,466.6666666666667,933.3333333333334,17
137_pomper_saffran_2016_45,9,blue,45,137,blue,target,106,0,1,NA,1,NA,1,NA,0,1766.6666666666667,1766.6666666666667,3533.3333333333335,20
137_pomper_saffran_2016_45,10,green,45,137,green,distractor,55,41,0.5729166666666666,NA,1,1,NA,1115,1,916.6666666666667,916.6666666666667,1833.3333333333335,20
137_pomper_saffran_2016_45,13,green,45,137,green,distractor,87,15,0.8529411764705882,NA,1,1,NA,490,1,1450,1450,2900,20
137_pomper_saffran_2016_45,14,yellow,45,137,yellow,target,53,46,0.5353535353535354,NA,1,NA,1,NA,1,883.3333333333334,883.3333333333334,1766.6666666666667,20
137_pomper_saffran_2016_45,15,blue,45,137,blue,target,106,0,1,NA,1,NA,1,NA,0,1766.6666666666667,1766.6666666666667,3533.3333333333335,20
138_pomper_saffran_2016_43,1,white,43,138,white,distractor,23,79,0.22549019607843138,-0.05660377358490565,1,0,NA,NA,1,383.33333333333337,383.33333333333337,766.6666666666667,18
138_pomper_saffran_2016_43,2,black,43,138,black,distractor,80,20,0.8,NA,1,1,NA,615,1,1333.3333333333335,1333.3333333333335,2666.666666666667,18
138_pomper_saffran_2016_43,3,red,43,138,red,target,91,0,1,0.8207547169811321,1,NA,1,NA,0,1516.6666666666667,1516.6666666666667,3033.3333333333335,18
138_pomper_saffran_2016_43,4,blue,43,138,blue,target,40,62,0.39215686274509803,NA,1,NA,0,NA,1,666.6666666666667,666.6666666666667,1333.3333333333335,18
138_pomper_saffran_2016_43,5,brown,43,138,brown,distractor,73,29,0.7156862745098039,-0.05660377358490565,1,1,NA,840,1,1216.6666666666667,1216.6666666666667,2433.3333333333335,18
138_pomper_saffran_2016_43,6,blue,43,138,blue,distractor,30,65,0.3157894736842105,NA,1,1,NA,140,1,400,400,800,18
138_pomper_saffran_2016_43,7,black,43,138,black,target,67,34,0.6633663366336634,NA,1,NA,1,NA,1,1116.6666666666667,1116.6666666666667,2233.3333333333335,18
138_pomper_saffran_2016_43,8,green,43,138,green,distractor,98,4,0.9607843137254902,0.9245283018867925,1,1,NA,215,0,1633.3333333333335,1633.3333333333335,3266.666666666667,18
139_pomper_saffran_2016_45,9,yellow,45,139,yellow,neither,102,0,1,NA,1,NA,NA,NA,0,1700.0000000000002,1700.0000000000002,3400.0000000000005,20
139_pomper_saffran_2016_45,10,brown,45,139,brown,target,61,35,0.6354166666666666,0.33962264150943394,2,NA,0,NA,2,433.33333333333337,550,1100,20
139_pomper_saffran_2016_45,11,red,45,139,red,distractor,71,32,0.6893203883495146,0.6698113207547169,1,1,NA,890,1,1183.3333333333335,1183.3333333333335,2366.666666666667,20
139_pomper_saffran_2016_45,12,orange,45,139,orange,target,0,106,0,NA,NA,NA,0,NA,0,NA,NA,NA,20
139_pomper_saffran_2016_45,13,white,45,139,white,distractor,79,25,0.7596153846153846,0.4150943396226415,1,1,NA,690,1,1316.6666666666667,1316.6666666666667,2633.3333333333335,20
139_pomper_saffran_2016_45,14,orange,45,139,orange,neither,88,0,1,NA,2,NA,NA,NA,0,733.3333333333334,1150,2300,20
139_pomper_saffran_2016_45,15,green,45,139,green,target,106,0,1,0.6981132075471699,1,NA,1,NA,0,1766.6666666666667,1766.6666666666667,3533.3333333333335,20
140_pomper_saffran_2016_46,1,brown,46,140,brown,distractor,17,62,0.21518987341772153,0.1509433962264151,1,1,NA,215,1,283.33333333333337,283.33333333333337,566.6666666666667,21
140_pomper_saffran_2016_46,2,yellow,46,140,yellow,neither,93,11,0.8942307692307693,NA,1,NA,NA,NA,0,1550,1550,3100,21
140_pomper_saffran_2016_46,3,green,46,140,green,neither,97,8,0.9238095238095239,0.7924528301886793,1,NA,NA,NA,0,1616.6666666666667,1616.6666666666667,3233.3333333333335,21
140_pomper_saffran_2016_46,4,orange,46,140,orange,neither,98,7,0.9333333333333333,NA,1,NA,NA,NA,0,1633.3333333333335,1633.3333333333335,3266.666666666667,21
140_pomper_saffran_2016_46,5,white,46,140,white,distractor,102,1,0.9902912621359223,0.37735849056603776,1,1,NA,115,0,1700.0000000000002,1700.0000000000002,3400.0000000000005,21
140_pomper_saffran_2016_46,6,orange,46,140,orange,distractor,77,23,0.77,NA,2,1,NA,215,2,641.6666666666667,916.6666666666667,1833.3333333333335,21
140_pomper_saffran_2016_46,7,yellow,46,140,yellow,distractor,102,1,0.9902912621359223,NA,1,1,NA,115,0,1700.0000000000002,1700.0000000000002,3400.0000000000005,21
140_pomper_saffran_2016_46,8,red,46,140,red,target,92,13,0.8761904761904762,0.7924528301886793,1,NA,1,NA,1,1533.3333333333335,1533.3333333333335,3066.666666666667,21
141_pomper_saffran_2016_47,9,blue,47,141,blue,distractor,69,35,0.6634615384615384,NA,1,1,NA,940,1,1150,1150,2300,22
141_pomper_saffran_2016_47,10,green,47,141,green,target,62,39,0.6138613861386139,NA,2,NA,0,NA,2,516.6666666666667,516.6666666666667,1033.3333333333335,22
141_pomper_saffran_2016_47,11,black,47,141,black,target,48,55,0.46601941747572817,0.30188679245283023,1,NA,0,NA,1,800,800,1600,22
141_pomper_saffran_2016_47,12,brown,47,141,brown,distractor,83,20,0.8058252427184466,0.7169811320754718,1,1,NA,590,1,1383.3333333333335,1383.3333333333335,2766.666666666667,22
141_pomper_saffran_2016_47,13,green,47,141,green,target,71,26,0.7319587628865979,NA,1,NA,0,NA,1,1183.3333333333335,1183.3333333333335,2366.666666666667,22
141_pomper_saffran_2016_47,14,yellow,47,141,yellow,distractor,87,16,0.8446601941747572,0.30188679245283023,1,1,NA,490,1,1450,1450,2900,22
141_pomper_saffran_2016_47,15,blue,47,141,blue,distractor,42,58,0.42,NA,1,1,NA,40,1,516.6666666666667,516.6666666666667,1033.3333333333335,22
141_pomper_saffran_2016_47,16,white,47,141,white,distractor,97,7,0.9326923076923077,0.7264150943396226,1,1,NA,240,0,1616.6666666666667,1616.6666666666667,3233.3333333333335,22
142_pomper_saffran_2016_46,1,white,46,142,white,distractor,97,3,0.97,0.839622641509434,1,1,NA,190,0,1616.6666666666667,1616.6666666666667,3233.3333333333335,21
142_pomper_saffran_2016_46,2,black,46,142,black,distractor,85,19,0.8173076923076923,NA,1,1,NA,540,1,1416.6666666666667,1416.6666666666667,2833.3333333333335,21
142_pomper_saffran_2016_46,3,red,46,142,red,target,106,0,1,0.6603773584905661,1,NA,1,NA,0,1766.6666666666667,1766.6666666666667,3533.3333333333335,21
142_pomper_saffran_2016_46,4,blue,46,142,blue,neither,106,0,1,NA,1,NA,NA,NA,0,1766.6666666666667,1766.6666666666667,3533.3333333333335,21
142_pomper_saffran_2016_46,5,brown,46,142,brown,distractor,95,8,0.9223300970873787,0.8679245283018868,1,1,NA,290,0,1583.3333333333335,1583.3333333333335,3166.666666666667,21
142_pomper_saffran_2016_46,6,blue,46,142,blue,neither,106,0,1,NA,1,NA,NA,NA,0,1766.6666666666667,1766.6666666666667,3533.3333333333335,21
142_pomper_saffran_2016_46,7,black,46,142,black,distractor,99,4,0.9611650485436893,NA,1,1,NA,190,0,1650.0000000000002,1650.0000000000002,3300.0000000000005,21
142_pomper_saffran_2016_46,8,green,46,142,green,target,66,36,0.6470588235294118,0.6226415094339622,2,NA,0,NA,2,550,583.3333333333334,1166.6666666666667,21
143_pomper_saffran_2016_45,9,yellow,45,143,yellow,neither,39,31,0.5571428571428572,NA,1,NA,NA,NA,1,650,650,1300,20
143_pomper_saffran_2016_45,10,brown,45,143,brown,target,106,0,1,NA,1,NA,1,NA,0,1766.6666666666667,1766.6666666666667,3533.3333333333335,20
143_pomper_saffran_2016_45,11,red,45,143,red,distractor,93,12,0.8857142857142857,0.7169811320754718,1,1,NA,340,1,1550,1550,3100,20
143_pomper_saffran_2016_45,14,orange,45,143,orange,neither,76,22,0.7755102040816326,NA,1,NA,NA,NA,1,1266.6666666666667,1266.6666666666667,2533.3333333333335,20
143_pomper_saffran_2016_45,15,green,45,143,green,neither,69,17,0.8023255813953488,0.5377358490566038,1,NA,NA,NA,1,1150,1150,2300,20
143_pomper_saffran_2016_45,16,yellow,45,143,yellow,target,106,0,1,NA,1,NA,1,NA,0,1766.6666666666667,1766.6666666666667,3533.3333333333335,20
144_pomper_saffran_2016_46,1,yellow,46,144,yellow,target,106,0,1,NA,1,NA,1,NA,0,1766.6666666666667,1766.6666666666667,3533.3333333333335,21
144_pomper_saffran_2016_46,2,brown,46,144,brown,neither,101,0,1,0.9245283018867925,1,NA,NA,NA,0,1683.3333333333335,1683.3333333333335,3366.666666666667,21
144_pomper_saffran_2016_46,3,red,46,144,red,distractor,90,12,0.8823529411764706,0.7641509433962265,1,1,NA,415,1,1500,1500,3000,21
144_pomper_saffran_2016_46,4,orange,46,144,orange,distractor,101,3,0.9711538461538461,NA,1,1,NA,140,0,1683.3333333333335,1683.3333333333335,3366.666666666667,21
144_pomper_saffran_2016_46,5,white,46,144,white,distractor,99,3,0.9705882352941176,0.9339622641509434,1,1,NA,190,0,1650.0000000000002,1650.0000000000002,3300.0000000000005,21
144_pomper_saffran_2016_46,6,orange,46,144,orange,distractor,91,11,0.8921568627450981,NA,1,1,NA,390,0,1516.6666666666667,1516.6666666666667,3033.3333333333335,21
144_pomper_saffran_2016_46,7,green,46,144,green,distractor,94,9,0.912621359223301,0.7735849056603774,1,1,NA,315,0,1566.6666666666667,1566.6666666666667,3133.3333333333335,21
144_pomper_saffran_2016_46,8,yellow,46,144,yellow,neither,93,0,1,NA,1,NA,NA,NA,0,1550,1550,3100,21
145_pomper_saffran_2016_47,9,black,47,145,black,target,83,13,0.8645833333333334,NA,2,NA,1,NA,2,691.6666666666666,1150,2300,22
145_pomper_saffran_2016_47,10,white,47,145,white,target,79,0,1,0.5660377358490566,2,NA,1,NA,0,658.3333333333334,1066.6666666666667,2133.3333333333335,22
145_pomper_saffran_2016_47,11,green,47,145,green,target,75,5,0.9375,NA,2,NA,0,NA,0,625,583.3333333333334,1333.3333333333335,22
145_pomper_saffran_2016_47,12,blue,47,145,blue,distractor,66,37,0.6407766990291263,NA,1,1,NA,1015,1,1100,1100,2200,22
145_pomper_saffran_2016_47,13,brown,47,145,brown,target,66,19,0.7764705882352941,0.6226415094339622,2,NA,0,NA,1,550,750,1500,22
145_pomper_saffran_2016_47,14,blue,47,145,blue,distractor,97,7,0.9326923076923077,NA,1,1,NA,240,0,1616.6666666666667,1616.6666666666667,3233.3333333333335,22
145_pomper_saffran_2016_47,16,black,47,145,black,distractor,58,35,0.6236559139784946,NA,2,1,NA,115,2,483.33333333333337,666.6666666666667,1333.3333333333335,22
146_pomper_saffran_2016_43,9,black,43,146,black,distractor,89,16,0.8476190476190476,NA,1,1,NA,440,1,1483.3333333333335,1483.3333333333335,2966.666666666667,18
146_pomper_saffran_2016_43,10,white,43,146,white,distractor,81,21,0.7941176470588235,0.5471698113207548,1,1,NA,115,1,1350,1350,2700,18
146_pomper_saffran_2016_43,11,green,43,146,green,target,67,11,0.8589743589743589,0.6320754716981132,1,NA,1,NA,0,1066.6666666666667,1066.6666666666667,2133.3333333333335,18
146_pomper_saffran_2016_43,12,blue,43,146,blue,target,97,0,1,NA,1,NA,1,NA,0,1616.6666666666667,1616.6666666666667,3233.3333333333335,18
146_pomper_saffran_2016_43,13,brown,43,146,brown,target,81,23,0.7788461538461539,0.5660377358490567,1,NA,1,NA,1,1350,1350,2700,18
146_pomper_saffran_2016_43,14,blue,43,146,blue,distractor,68,33,0.6732673267326733,NA,1,1,NA,340,1,1133.3333333333335,1133.3333333333335,2266.666666666667,18
146_pomper_saffran_2016_43,15,red,43,146,red,target,84,0,1,0.6886792452830189,2,NA,1,NA,0,700,616.6666666666667,1566.6666666666667,18
146_pomper_saffran_2016_43,16,black,43,146,black,distractor,15,49,0.234375,NA,1,0,NA,NA,1,250.00000000000003,250.00000000000003,500.00000000000006,18
147_pomper_saffran_2016_46,9,white,46,147,white,distractor,89,16,0.8476190476190476,0.7358490566037736,1,1,NA,440,1,1483.3333333333335,1483.3333333333335,2966.666666666667,21
147_pomper_saffran_2016_46,10,black,46,147,black,distractor,38,63,0.37623762376237624,NA,1,1,NA,490,2,633.3333333333334,633.3333333333334,1266.6666666666667,21
147_pomper_saffran_2016_46,11,red,46,147,red,distractor,97,7,0.9326923076923077,0.6981132075471699,1,1,NA,240,0,1616.6666666666667,1616.6666666666667,3233.3333333333335,21
147_pomper_saffran_2016_46,12,blue,46,147,blue,distractor,78,21,0.7878787878787878,NA,1,1,NA,190,1,1300,1300,2600,21
147_pomper_saffran_2016_46,13,brown,46,147,brown,distractor,93,11,0.8942307692307693,0.7264150943396227,1,1,NA,340,0,1550,1550,3100,21
147_pomper_saffran_2016_46,14,blue,46,147,blue,target,106,0,1,NA,1,NA,1,NA,0,1766.6666666666667,1766.6666666666667,3533.3333333333335,21
147_pomper_saffran_2016_46,15,black,46,147,black,neither,46,19,0.7076923076923077,NA,1,NA,NA,NA,0,766.6666666666667,766.6666666666667,1533.3333333333335,21
147_pomper_saffran_2016_46,16,green,46,147,green,distractor,77,23,0.77,0.660377358490566,1,1,NA,140,1,1116.6666666666667,1116.6666666666667,2233.3333333333335,21
148_pomper_saffran_2016_44,1,yellow,44,148,yellow,target,28,40,0.4117647058823529,NA,1,NA,0,NA,1,316.6666666666667,316.6666666666667,633.3333333333334,19
148_pomper_saffran_2016_44,2,brown,44,148,brown,distractor,75,26,0.7425742574257426,0.21698113207547165,2,1,NA,140,2,625,766.6666666666667,1533.3333333333335,19
148_pomper_saffran_2016_44,3,red,44,148,red,distractor,50,49,0.5050505050505051,0.3679245283018868,1,1,NA,290,1,833.3333333333334,833.3333333333334,1666.6666666666667,19
148_pomper_saffran_2016_44,4,orange,44,148,orange,target,44,55,0.4444444444444444,NA,2,NA,0,NA,2,366.6666666666667,483.33333333333337,966.6666666666667,19
148_pomper_saffran_2016_44,5,white,44,148,white,distractor,51,52,0.49514563106796117,0.2358490566037736,1,1,NA,340,1,850.0000000000001,850.0000000000001,1700.0000000000002,19
148_pomper_saffran_2016_44,6,orange,44,148,orange,target,106,0,1,NA,1,NA,1,NA,0,1766.6666666666667,1766.6666666666667,3533.3333333333335,19
148_pomper_saffran_2016_44,7,green,44,148,green,distractor,94,11,0.8952380952380953,0.42452830188679247,1,1,NA,315,0,1566.6666666666667,1566.6666666666667,3133.3333333333335,19
148_pomper_saffran_2016_44,8,yellow,44,148,yellow,target,106,0,1,NA,1,NA,1,NA,0,1766.6666666666667,1766.6666666666667,3533.3333333333335,19
149_pomper_saffran_2016_44,9,brown,44,149,brown,distractor,67,27,0.7127659574468085,0.3773584905660377,2,1,NA,90,2,558.3333333333334,300,1633.3333333333335,19
149_pomper_saffran_2016_44,10,yellow,44,149,yellow,target,106,0,1,NA,1,NA,1,NA,0,1766.6666666666667,1766.6666666666667,3533.3333333333335,19
149_pomper_saffran_2016_44,11,green,44,149,green,target,106,0,1,1,1,NA,1,NA,0,1766.6666666666667,1766.6666666666667,3533.3333333333335,19
149_pomper_saffran_2016_44,12,orange,44,149,orange,distractor,62,32,0.6595744680851063,NA,2,1,NA,390,1,516.6666666666667,366.6666666666667,1333.3333333333335,19
149_pomper_saffran_2016_44,13,white,44,149,white,target,69,27,0.71875,0.3962264150943396,1,NA,0,NA,1,1150,1150,2300,19
149_pomper_saffran_2016_44,14,orange,44,149,orange,distractor,102,1,0.9902912621359223,NA,1,1,NA,115,0,1700.0000000000002,1700.0000000000002,3400.0000000000005,19
149_pomper_saffran_2016_44,15,yellow,44,149,yellow,distractor,95,8,0.9223300970873787,NA,1,1,NA,290,0,1583.3333333333335,1583.3333333333335,3166.666666666667,19
149_pomper_saffran_2016_44,16,red,44,149,red,target,106,0,1,1,1,NA,1,NA,0,1766.6666666666667,1766.6666666666667,3533.3333333333335,19
150_pomper_saffran_2016_43,9,white,43,150,white,distractor,90,12,0.8823529411764706,0.7452830188679246,2,1,NA,15,2,750,733.3333333333334,1533.3333333333335,18
150_pomper_saffran_2016_43,10,black,43,150,black,distractor,77,19,0.8020833333333334,NA,2,1,NA,190,2,641.6666666666667,433.33333333333337,1700.0000000000002,18
150_pomper_saffran_2016_43,11,red,43,150,red,target,106,0,1,0.8018867924528301,1,NA,1,NA,0,1766.6666666666667,1766.6666666666667,3533.3333333333335,18
150_pomper_saffran_2016_43,12,blue,43,150,blue,distractor,105,0,1,NA,1,1,NA,40,0,1750.0000000000002,1750.0000000000002,3500.0000000000005,18
150_pomper_saffran_2016_43,13,brown,43,150,brown,distractor,93,11,0.8942307692307693,0.7641509433962265,1,1,NA,340,0,1550,1550,3100,18
150_pomper_saffran_2016_43,14,blue,43,150,blue,target,106,0,1,NA,1,NA,1,NA,0,1766.6666666666667,1766.6666666666667,3533.3333333333335,18
150_pomper_saffran_2016_43,15,black,43,150,black,target,106,0,1,NA,1,NA,1,NA,0,1766.6666666666667,1766.6666666666667,3533.3333333333335,18
150_pomper_saffran_2016_43,16,green,43,150,green,target,76,21,0.7835051546391752,0.71698113207547165,2,NA,0,NA,2,633.3333333333334,750,1500,18
151_pomper_saffran_2016_45,1,brown,45,151,brown,target,52,43,0.5473684210526316,0.2169811320754717,2,NA,0,NA,3,341.6666666666667,216.66666666666669,933.3333333333334,20
151_pomper_saffran_2016_45,2,yellow,45,151,yellow,distractor,98,4,0.9607843137254902,NA,1,1,NA,215,0,1633.3333333333335,1633.3333333333335,3266.666666666667,20
151_pomper_saffran_2016_45,3,green,45,151,green,target,69,24,0.7419354838709677,0.2264150943396226,1,NA,0,NA,1,966.6666666666667,966.6666666666667,1933.3333333333335,20
151_pomper_saffran_2016_45,4,orange,45,151,orange,target,55,40,0.5789473684210527,NA,2,NA,0,NA,2,433.33333333333337,500.00000000000006,1000.0000000000001,20
151_pomper_saffran_2016_45,5,white,45,151,white,distractor,67,29,0.6979166666666666,0.2264150943396226,2,1,NA,540,1,558.3333333333334,600,1200,20
151_pomper_saffran_2016_45,6,orange,45,151,orange,target,52,48,0.52,NA,2,NA,0,NA,2,433.33333333333337,216.66666666666669,1300,20
151_pomper_saffran_2016_45,7,yellow,45,151,yellow,distractor,79,24,0.7669902912621359,NA,1,1,NA,690,1,1316.6666666666667,1316.6666666666667,2633.3333333333335,20
151_pomper_saffran_2016_45,8,red,45,151,red,target,58,45,0.5631067961165048,0.32075471698113206,2,NA,0,NA,2,483.33333333333337,683.3333333333334,1366.6666666666667,20
152_pomper_saffran_2016_46,1,black,46,152,black,distractor,61,25,0.7093023255813954,NA,1,1,NA,515,1,1016.6666666666667,1016.6666666666667,2033.3333333333335,21
152_pomper_saffran_2016_46,2,white,46,152,white,distractor,89,16,0.8476190476190476,0.7264150943396227,1,1,NA,440,1,1483.3333333333335,1483.3333333333335,2966.666666666667,21
152_pomper_saffran_2016_46,4,blue,46,152,blue,target,48,16,0.75,NA,1,NA,0,NA,1,683.3333333333334,683.3333333333334,1366.6666666666667,21
152_pomper_saffran_2016_46,5,brown,46,152,brown,distractor,91,12,0.883495145631068,0.7075471698113208,1,1,NA,390,1,1516.6666666666667,1516.6666666666667,3033.3333333333335,21
152_pomper_saffran_2016_46,6,blue,46,152,blue,distractor,61,34,0.6421052631578947,NA,2,1,NA,515,3,508.33333333333337,483.33333333333337,1066.6666666666667,21
152_pomper_saffran_2016_46,7,red,46,152,red,target,31,72,0.30097087378640774,NA,1,NA,0,NA,2,383.33333333333337,383.33333333333337,766.6666666666667,21
152_pomper_saffran_2016_46,8,black,46,152,black,neither,75,0,1,NA,1,NA,NA,NA,0,1250,1250,2500,21
153_pomper_saffran_2016_45,1,black,45,153,black,distractor,29,55,0.34523809523809523,NA,1,1,NA,390,2,333.33333333333337,333.33333333333337,666.6666666666667,20
153_pomper_saffran_2016_45,2,white,45,153,white,target,106,0,1,0.4811320754716981,1,NA,1,NA,0,1766.6666666666667,1766.6666666666667,3533.3333333333335,20
153_pomper_saffran_2016_45,3,green,45,153,green,distractor,79,7,0.9186046511627907,0.6037735849056604,1,1,NA,240,0,1316.6666666666667,1316.6666666666667,2633.3333333333335,20
153_pomper_saffran_2016_45,5,brown,45,153,brown,target,45,55,0.45,0.42452830188679247,1,NA,0,NA,2,750,750,1500,20
153_pomper_saffran_2016_45,6,blue,45,153,blue,target,37,62,0.37373737373737376,NA,1,NA,0,NA,1,566.6666666666667,566.6666666666667,1133.3333333333335,20
153_pomper_saffran_2016_45,7,red,45,153,red,distractor,89,15,0.8557692307692307,0.7735849056603774,1,1,NA,440,1,1483.3333333333335,1483.3333333333335,2966.666666666667,20
153_pomper_saffran_2016_45,8,black,45,153,black,target,106,0,1,NA,1,NA,1,NA,0,1766.6666666666667,1766.6666666666667,3533.3333333333335,20
154_pomper_saffran_2016_41,9,brown,41,154,brown,distractor,49,50,0.494949494949495,0.3113207547169812,2,1,NA,440,3,408.33333333333337,433.33333333333337,866.6666666666667,16
154_pomper_saffran_2016_41,10,yellow,41,154,yellow,target,91,13,0.875,NA,1,NA,1,NA,1,1516.6666666666667,1516.6666666666667,3033.3333333333335,16
154_pomper_saffran_2016_41,11,green,41,154,green,target,76,28,0.7307692307692307,0.49999999999999994,1,NA,0,NA,1,1216.6666666666667,1216.6666666666667,2433.3333333333335,16
154_pomper_saffran_2016_41,12,orange,41,154,orange,distractor,81,19,0.81,NA,2,1,NA,140,2,675.0000000000001,316.6666666666667,2066.666666666667,16
154_pomper_saffran_2016_41,13,white,41,154,white,distractor,89,16,0.8476190476190476,0.3679245283018868,1,1,NA,440,1,1483.3333333333335,1483.3333333333335,2966.666666666667,16
154_pomper_saffran_2016_41,14,orange,41,154,orange,target,82,18,0.82,NA,1,NA,0,NA,1,1366.6666666666667,1366.6666666666667,2733.3333333333335,16
154_pomper_saffran_2016_41,15,yellow,41,154,yellow,target,106,0,1,NA,1,NA,1,NA,0,1766.6666666666667,1766.6666666666667,3533.3333333333335,16
154_pomper_saffran_2016_41,16,red,41,154,red,target,79,23,0.7745098039215687,0.48113207547169806,1,NA,0,NA,1,1300,1300,2600,16
155_pomper_saffran_2016_44,1,orange,44,155,orange,target,106,0,1,NA,1,NA,1,NA,0,1766.6666666666667,1766.6666666666667,3533.3333333333335,19
155_pomper_saffran_2016_44,2,red,44,155,red,target,106,0,1,NA,1,NA,1,NA,0,1766.6666666666667,1766.6666666666667,3533.3333333333335,19
155_pomper_saffran_2016_44,3,yellow,44,155,yellow,distractor,95,7,0.9313725490196079,-0.10377358490566035,1,1,NA,290,0,1583.3333333333335,1583.3333333333335,3166.666666666667,19
155_pomper_saffran_2016_44,4,white,44,155,white,target,60,38,0.6122448979591837,0.5566037735849056,1,NA,1,NA,1,1000.0000000000001,1000.0000000000001,2000.0000000000002,19
155_pomper_saffran_2016_44,5,red,44,155,red,target,106,0,1,NA,1,NA,1,NA,0,1766.6666666666667,1766.6666666666667,3533.3333333333335,19
155_pomper_saffran_2016_44,6,black,44,155,black,distractor,0,106,0,-0.0660377358490566,NA,0,NA,NA,0,NA,NA,NA,19
155_pomper_saffran_2016_44,7,orange,44,155,orange,distractor,71,7,0.9102564102564102,NA,2,1,NA,240,0,591.6666666666667,400,1566.6666666666667,19
155_pomper_saffran_2016_44,8,brown,44,155,brown,distractor,103,1,0.9903846153846154,0.6132075471698113,1,1,NA,90,0,1716.6666666666667,1716.6666666666667,3433.3333333333335,19
156_pomper_saffran_2016_46,9,green,46,156,green,distractor,7,96,0.06796116504854369,NA,NA,0,NA,NA,0,NA,NA,NA,21
156_pomper_saffran_2016_46,10,blue,46,156,blue,distractor,41,58,0.41414141414141414,NA,2,1,NA,340,2,341.6666666666667,466.6666666666667,933.3333333333334,21
156_pomper_saffran_2016_46,11,black,46,156,black,target,78,0,1,NA,2,NA,1,NA,0,650,883.3333333333334,1766.6666666666667,21
156_pomper_saffran_2016_46,12,brown,46,156,brown,distractor,79,0,1,0.49999999999999994,1,1,NA,240,0,1316.6666666666667,1316.6666666666667,2633.3333333333335,21
156_pomper_saffran_2016_46,14,green,46,156,green,distractor,91,12,0.883495145631068,NA,1,1,NA,390,1,1516.6666666666667,1516.6666666666667,3033.3333333333335,21
156_pomper_saffran_2016_46,15,white,46,156,white,target,77,26,0.7475728155339806,0.7264150943396226,1,NA,1,NA,1,1283.3333333333335,1283.3333333333335,2566.666666666667,21
156_pomper_saffran_2016_46,16,blue,46,156,blue,target,62,36,0.6326530612244898,NA,2,NA,0,NA,2,516.6666666666667,283.33333333333337,1500,21
157_pomper_saffran_2016_46,1,blue,46,157,blue,distractor,74,24,0.7551020408163265,NA,2,1,NA,90,2,616.6666666666667,1000.0000000000001,2000.0000000000002,21
157_pomper_saffran_2016_46,2,green,46,157,green,target,106,0,1,NA,1,NA,1,NA,0,1766.6666666666667,1766.6666666666667,3533.3333333333335,21
157_pomper_saffran_2016_46,3,black,46,157,black,target,106,0,1,0.7452830188679245,1,NA,1,NA,0,1766.6666666666667,1766.6666666666667,3533.3333333333335,21
157_pomper_saffran_2016_46,4,brown,46,157,brown,distractor,102,1,0.9902912621359223,0.7358490566037736,1,1,NA,115,0,1700.0000000000002,1700.0000000000002,3400.0000000000005,21
157_pomper_saffran_2016_46,5,green,46,157,green,neither,106,0,1,NA,1,NA,NA,NA,0,1766.6666666666667,1766.6666666666667,3533.3333333333335,21
157_pomper_saffran_2016_46,6,yellow,46,157,yellow,distractor,65,27,0.7065217391304348,0.6132075471698113,1,1,NA,1040,1,1083.3333333333335,1083.3333333333335,2166.666666666667,21
157_pomper_saffran_2016_46,7,blue,46,157,blue,target,70,32,0.6862745098039216,NA,2,NA,0,NA,2,583.3333333333334,733.3333333333334,1466.6666666666667,21
157_pomper_saffran_2016_46,8,white,46,157,white,target,74,24,0.7551020408163265,0.6886792452830188,2,NA,0,NA,2,616.6666666666667,583.3333333333334,1300,21
158_pomper_saffran_2016_47,1,blue,47,158,blue,target,36,67,0.34951456310679613,NA,1,NA,0,NA,1,600,600,1200,22
158_pomper_saffran_2016_47,2,green,47,158,green,distractor,56,24,0.7,NA,2,1,NA,690,1,466.66666666666674,433.33333333333337,1000.0000000000001,22
158_pomper_saffran_2016_47,3,black,47,158,black,target,76,0,1,NA,1,NA,1,NA,0,1116.6666666666667,1116.6666666666667,2233.3333333333335,22
158_pomper_saffran_2016_47,4,brown,47,158,brown,distractor,95,8,0.9223300970873787,0.5188679245283019,1,1,NA,290,0,1583.3333333333335,1583.3333333333335,3166.666666666667,22
158_pomper_saffran_2016_47,5,green,47,158,green,distractor,37,67,0.3557692307692308,NA,1,0,NA,NA,1,616.6666666666667,616.6666666666667,1233.3333333333335,22
158_pomper_saffran_2016_47,7,blue,47,158,blue,target,71,8,0.8987341772151899,NA,1,NA,1,NA,0,1183.3333333333335,1183.3333333333335,2366.666666666667,22
158_pomper_saffran_2016_47,8,white,47,158,white,distractor,59,40,0.5959595959595959,0.4811320754716981,2,1,NA,540,3,491.6666666666667,400,1166.6666666666667,22
159_pomper_saffran_2016_47,9,red,47,159,red,distractor,94,9,0.912621359223301,NA,1,1,NA,315,0,1566.6666666666667,1566.6666666666667,3133.3333333333335,22
159_pomper_saffran_2016_47,10,orange,47,159,orange,neither,41,15,0.7321428571428571,NA,1,NA,NA,NA,1,683.3333333333334,683.3333333333334,1366.6666666666667,22
159_pomper_saffran_2016_47,11,yellow,47,159,yellow,target,106,0,1,0.6981132075471699,1,NA,1,NA,0,1766.6666666666667,1766.6666666666667,3533.3333333333335,22
159_pomper_saffran_2016_47,12,white,47,159,white,target,24,40,0.375,0.07547169811320756,1,NA,0,NA,1,316.6666666666667,316.6666666666667,633.3333333333334,22
159_pomper_saffran_2016_47,13,black,47,159,black,target,66,32,0.673469387755102,0.6226415094339622,1,NA,0,NA,1,983.3333333333334,983.3333333333334,1966.6666666666667,22
159_pomper_saffran_2016_47,14,red,47,159,red,distractor,0,76,0,NA,NA,0,NA,NA,0,NA,NA,NA,22
159_pomper_saffran_2016_47,15,brown,47,159,brown,distractor,87,16,0.8446601941747572,0.44339622641509435,1,1,NA,490,1,1450,1450,2900,22
159_pomper_saffran_2016_47,16,orange,47,159,orange,distractor,0,106,0,NA,NA,0,NA,NA,0,NA,NA,NA,22
160_pomper_saffran_2016_43,1,green,43,160,green,target,76,26,0.7450980392156863,NA,1,NA,0,NA,1,1216.6666666666667,1216.6666666666667,2433.3333333333335,18
160_pomper_saffran_2016_43,2,blue,43,160,blue,target,24,73,0.24742268041237114,NA,1,NA,0,NA,1,333.33333333333337,333.33333333333337,666.6666666666667,18
160_pomper_saffran_2016_43,3,black,43,160,black,distractor,28,72,0.28,0.2641509433962264,1,1,NA,515,2,466.6666666666667,466.6666666666667,933.3333333333334,18
160_pomper_saffran_2016_43,4,brown,43,160,brown,distractor,66,29,0.6947368421052632,0.6226415094339622,3,1,NA,90,2,366.6666666666667,200,1333.3333333333335,18
160_pomper_saffran_2016_43,5,yellow,43,160,yellow,target,106,0,1,0.3207547169811321,1,NA,1,NA,0,1766.6666666666667,1766.6666666666667,3533.3333333333335,18
160_pomper_saffran_2016_43,6,green,43,160,green,distractor,71,24,0.7473684210526316,NA,1,1,NA,340,1,1183.3333333333335,1183.3333333333335,2366.666666666667,18
160_pomper_saffran_2016_43,7,white,43,160,white,target,106,0,1,0.7264150943396226,1,NA,1,NA,0,1766.6666666666667,1766.6666666666667,3533.3333333333335,18
160_pomper_saffran_2016_43,8,blue,43,160,blue,distractor,95,5,0.95,NA,1,1,NA,140,0,1583.3333333333335,1583.3333333333335,3166.666666666667,18
161_pomper_saffran_2016_44,1,orange,44,161,orange,target,39,33,0.5416666666666666,NA,1,NA,1,NA,1,650,650,1300,19
161_pomper_saffran_2016_44,2,red,44,161,red,target,77,0,1,NA,1,NA,1,NA,0,1283.3333333333335,1283.3333333333335,2566.666666666667,19
161_pomper_saffran_2016_44,3,yellow,44,161,yellow,distractor,89,12,0.8811881188118812,0.42452830188679247,1,1,NA,415,1,1483.3333333333335,1483.3333333333335,2966.666666666667,19
161_pomper_saffran_2016_44,4,white,44,161,white,distractor,80,17,0.8247422680412371,0.3207547169811321,2,1,NA,115,2,666.6666666666667,1083.3333333333335,2166.666666666667,19
161_pomper_saffran_2016_44,5,red,44,161,red,distractor,98,5,0.9514563106796117,NA,1,1,NA,215,0,1633.3333333333335,1633.3333333333335,3266.666666666667,19
161_pomper_saffran_2016_44,6,black,44,161,black,distractor,55,44,0.5555555555555556,0.4056603773584906,1,1,NA,440,2,916.6666666666667,916.6666666666667,1833.3333333333335,19
161_pomper_saffran_2016_44,7,orange,44,161,orange,target,23,71,0.24468085106382978,NA,1,NA,0,NA,1,266.6666666666667,266.6666666666667,533.3333333333334,19
161_pomper_saffran_2016_44,8,brown,44,161,brown,distractor,53,46,0.5353535353535354,0.339622641509434,1,1,NA,490,2,800,800,1600,19
162_pomper_saffran_2016_45,10,blue,45,162,blue,target,63,34,0.6494845360824743,NA,2,NA,0,NA,2,525,600,1200,20
162_pomper_saffran_2016_45,11,black,45,162,black,neither,22,41,0.3492063492063492,-0.1132075471698113,1,NA,NA,NA,1,366.6666666666667,366.6666666666667,733.3333333333334,20
162_pomper_saffran_2016_45,12,brown,45,162,brown,target,97,6,0.941747572815534,0.4716981132075472,1,NA,1,NA,0,1616.6666666666667,1616.6666666666667,3233.3333333333335,20
162_pomper_saffran_2016_45,13,yellow,45,162,yellow,distractor,42,34,0.5526315789473685,0.009433962264150941,1,0,NA,NA,1,700,700,1400,20
162_pomper_saffran_2016_45,15,white,45,162,white,distractor,57,47,0.5480769230769231,0.4811320754716981,1,1,NA,1240,1,950.0000000000001,950.0000000000001,1900.0000000000002,20
162_pomper_saffran_2016_45,16,blue,45,162,blue,neither,95,0,1,NA,1,NA,NA,NA,0,1583.3333333333335,1583.3333333333335,3166.666666666667,20
163_pomper_saffran_2016_46,1,blue,46,163,blue,target,75,28,0.7281553398058253,NA,2,NA,0,NA,2,625,616.6666666666667,1266.6666666666667,21
163_pomper_saffran_2016_46,2,green,46,163,green,target,91,9,0.91,NA,1,NA,0,NA,0,1383.3333333333335,1383.3333333333335,2766.666666666667,21
163_pomper_saffran_2016_46,3,black,46,163,black,distractor,74,29,0.7184466019417476,0.6981132075471698,1,1,NA,815,1,1233.3333333333335,1233.3333333333335,2466.666666666667,21
163_pomper_saffran_2016_46,4,brown,46,163,brown,target,66,24,0.7333333333333333,0.6226415094339622,1,NA,0,NA,1,983.3333333333334,983.3333333333334,1966.6666666666667,21
163_pomper_saffran_2016_46,5,green,46,163,green,distractor,103,0,1,NA,1,1,NA,90,0,1716.6666666666667,1716.6666666666667,3433.3333333333335,21
163_pomper_saffran_2016_46,6,yellow,46,163,yellow,target,106,0,1,0.7264150943396226,1,NA,1,NA,0,1766.6666666666667,1766.6666666666667,3533.3333333333335,21
163_pomper_saffran_2016_46,7,blue,46,163,blue,target,60,44,0.5769230769230769,NA,2,NA,0,NA,2,500.00000000000006,516.6666666666667,1033.3333333333335,21
163_pomper_saffran_2016_46,8,white,46,163,white,target,106,0,1,0.7735849056603774,1,NA,1,NA,0,1766.6666666666667,1766.6666666666667,3533.3333333333335,21
164_pomper_saffran_2016_45,9,red,45,164,red,distractor,106,0,1,NA,1,1,NA,15,0,1766.6666666666667,1766.6666666666667,3533.3333333333335,20
164_pomper_saffran_2016_45,10,orange,45,164,orange,neither,76,20,0.7916666666666666,NA,2,NA,NA,NA,0,633.3333333333334,833.3333333333334,1666.6666666666667,20
164_pomper_saffran_2016_45,11,yellow,45,164,yellow,distractor,27,77,0.25961538461538464,-0.22641509433962265,1,0,NA,NA,1,450.00000000000006,450.00000000000006,900.0000000000001,20
164_pomper_saffran_2016_45,12,white,45,164,white,distractor,63,36,0.6363636363636364,NA,2,1,NA,690,3,525,500.00000000000006,1100,20
164_pomper_saffran_2016_45,13,black,45,164,black,distractor,50,51,0.49504950495049505,-0.2547169811320754,2,1,NA,715,3,416.6666666666667,583.3333333333334,1166.6666666666667,20
164_pomper_saffran_2016_45,16,orange,45,164,orange,distractor,21,82,0.20388349514563106,NA,1,0,NA,NA,2,350,350,700,20
165_pomper_saffran_2016_46,1,black,46,165,black,neither,54,0,1,NA,2,NA,NA,NA,0,450,600,1200,21
165_pomper_saffran_2016_46,2,white,46,165,white,neither,61,14,0.8133333333333334,0.5754716981132075,2,NA,NA,NA,2,508.33333333333337,650,1300,21
165_pomper_saffran_2016_46,4,blue,46,165,blue,target,59,32,0.6483516483516484,NA,2,NA,0,NA,2,441.6666666666667,466.6666666666667,933.3333333333334,21
165_pomper_saffran_2016_46,5,brown,46,165,brown,target,63,0,1,0.46226415094339623,1,NA,1,NA,0,1050,1050,2100,21
165_pomper_saffran_2016_46,6,blue,46,165,blue,target,57,23,0.7125,NA,1,NA,1,NA,1,950.0000000000001,950.0000000000001,1900.0000000000002,21
165_pomper_saffran_2016_46,7,red,46,165,red,distractor,61,7,0.8970588235294118,NA,1,1,NA,215,0,1016.6666666666667,1016.6666666666667,2033.3333333333335,21
166_pomper_saffran_2016_47,9,orange,47,166,orange,target,106,0,1,NA,1,NA,1,NA,0,1766.6666666666667,1766.6666666666667,3533.3333333333335,22
166_pomper_saffran_2016_47,10,red,47,166,red,distractor,101,3,0.9711538461538461,NA,1,1,NA,140,0,1683.3333333333335,1683.3333333333335,3366.666666666667,22
166_pomper_saffran_2016_47,11,yellow,47,166,yellow,distractor,103,0,1,0.7075471698113207,1,1,NA,90,0,1716.6666666666667,1716.6666666666667,3433.3333333333335,22
166_pomper_saffran_2016_47,12,white,47,166,white,target,100,2,0.9803921568627451,0.679245283018868,1,NA,1,NA,0,1666.6666666666667,1666.6666666666667,3333.3333333333335,22
166_pomper_saffran_2016_47,13,red,47,166,red,distractor,103,1,0.9903846153846154,NA,1,1,NA,90,0,1716.6666666666667,1716.6666666666667,3433.3333333333335,22
166_pomper_saffran_2016_47,14,black,47,166,black,distractor,75,28,0.7281553398058253,0.7075471698113207,1,1,NA,790,1,1250,1250,2500,22
166_pomper_saffran_2016_47,15,orange,47,166,orange,target,95,0,1,NA,2,NA,1,NA,0,791.6666666666667,1216.6666666666667,2433.3333333333335,22
166_pomper_saffran_2016_47,16,brown,47,166,brown,distractor,77,28,0.7333333333333333,0.7075471698113207,1,1,NA,740,1,1283.3333333333335,1283.3333333333335,2566.666666666667,22
167_pomper_saffran_2016_46,1,green,46,167,green,distractor,91,12,0.883495145631068,NA,1,1,NA,390,1,1516.6666666666667,1516.6666666666667,3033.3333333333335,21
167_pomper_saffran_2016_46,2,blue,46,167,blue,target,106,0,1,NA,1,NA,1,NA,0,1766.6666666666667,1766.6666666666667,3533.3333333333335,21
167_pomper_saffran_2016_46,3,black,46,167,black,target,106,0,1,0.9716981132075472,1,NA,1,NA,0,1766.6666666666667,1766.6666666666667,3533.3333333333335,21
167_pomper_saffran_2016_46,4,brown,46,167,brown,distractor,91,12,0.883495145631068,0.78301886792452835,1,1,NA,390,1,1516.6666666666667,1516.6666666666667,3033.3333333333335,21
167_pomper_saffran_2016_46,5,yellow,46,167,yellow,distractor,102,3,0.9714285714285714,0.9622641509433962,1,1,NA,115,0,1700.0000000000002,1700.0000000000002,3400.0000000000005,21
167_pomper_saffran_2016_46,6,green,46,167,green,target,97,8,0.9238095238095239,NA,1,NA,0,NA,0,1616.6666666666667,1616.6666666666667,3233.3333333333335,21
167_pomper_saffran_2016_46,7,white,46,167,white,target,93,8,0.9207920792079208,0.7641509433962265,1,NA,0,NA,0,1550,1550,3100,21
167_pomper_saffran_2016_46,8,blue,46,167,blue,neither,106,0,1,NA,1,NA,NA,NA,0,1766.6666666666667,1766.6666666666667,3533.3333333333335,21
769_swingley_aslin_2002_15,2,opple,15,439,opple,distractor,55,49,0.5288461538461539,NA,1,1,NA,1290,1,916.6666666666667,916.6666666666667,1833.3333333333335,-10
769_swingley_aslin_2002_15,3,pity,15,439,pity,distractor,0,106,0,NA,NA,0,NA,NA,0,NA,NA,NA,-10
769_swingley_aslin_2002_15,5,tog,15,439,tog,target,60,45,0.5714285714285714,NA,1,NA,1,NA,1,1000.0000000000001,1000.0000000000001,2000.0000000000002,-10
769_swingley_aslin_2002_15,9,cur,15,439,cur,target,44,58,0.43137254901960786,NA,2,NA,0,NA,2,366.6666666666667,483.33333333333337,966.6666666666667,-10
769_swingley_aslin_2002_15,10,vaby,15,439,vaby,target,106,0,1,NA,1,NA,1,NA,0,1766.6666666666667,1766.6666666666667,3533.3333333333335,-10
769_swingley_aslin_2002_15,11,gall,15,439,gall,distractor,26,76,0.2549019607843137,NA,1,1,NA,440,2,433.33333333333337,433.33333333333337,866.6666666666667,-10
769_swingley_aslin_2002_15,17,gall,15,439,gall,distractor,45,59,0.4326923076923077,NA,1,1,NA,15,1,600,600,1200,-10
769_swingley_aslin_2002_15,18,vaby,15,439,vaby,target,106,0,1,NA,1,NA,1,NA,0,1766.6666666666667,1766.6666666666667,3533.3333333333335,-10
769_swingley_aslin_2002_15,20,tog,15,439,tog,distractor,94,11,0.8952380952380953,NA,1,1,NA,315,0,1566.6666666666667,1566.6666666666667,3133.3333333333335,-10
769_swingley_aslin_2002_15,23,cur,15,439,cur,target,106,0,1,NA,1,NA,1,NA,0,1766.6666666666667,1766.6666666666667,3533.3333333333335,-10
769_swingley_aslin_2002_15,25,pity,15,439,pity,target,86,16,0.8431372549019608,NA,2,NA,0,NA,2,716.6666666666667,250.00000000000003,2366.666666666667,-10
770_swingley_aslin_2002_15,1,pity,15,440,pity,distractor,0,105,0,NA,NA,0,NA,NA,0,NA,NA,NA,-10
770_swingley_aslin_2002_15,3,cur,15,440,cur,distractor,84,15,0.8484848484848485,NA,2,1,NA,440,1,700,1166.6666666666667,2333.3333333333335,-10
770_swingley_aslin_2002_15,6,tog,15,440,tog,target,83,0,1,NA,2,NA,1,NA,0,691.6666666666667,600,1566.6666666666667,-10
770_swingley_aslin_2002_15,8,vaby,15,440,vaby,distractor,43,55,0.4387755102040816,NA,1,0,NA,NA,1,716.6666666666667,716.6666666666667,1433.3333333333335,-10
770_swingley_aslin_2002_15,9,gall,15,440,gall,target,7,93,0.07,NA,NA,NA,0,NA,0,NA,NA,NA,-10
770_swingley_aslin_2002_15,12,opple,15,440,opple,distractor,18,70,0.20454545454545456,NA,1,1,NA,1190,2,300,300,600,-10
770_swingley_aslin_2002_15,14,cur,15,440,cur,distractor,71,23,0.7553191489361702,NA,2,1,NA,415,1,591.6666666666667,533.3333333333334,1300,-10
771_swingley_aslin_2002_15,1,pity,15,441,pity,neither,58,40,0.5918367346938775,NA,2,NA,NA,NA,3,483.33333333333337,500.00000000000006,1000.0000000000001,-10
771_swingley_aslin_2002_15,3,cur,15,441,cur,distractor,37,65,0.3627450980392157,NA,1,0,NA,NA,1,616.6666666666667,616.6666666666667,1233.3333333333335,-10
771_swingley_aslin_2002_15,6,tog,15,441,tog,distractor,48,55,0.46601941747572817,NA,1,1,NA,890,2,800,800,1600,-10
771_swingley_aslin_2002_15,8,vaby,15,441,vaby,distractor,50,51,0.49504950495049505,NA,1,1,NA,215,1,783.3333333333334,783.3333333333334,1566.6666666666667,-10
771_swingley_aslin_2002_15,9,gall,15,441,gall,distractor,74,29,0.7184466019417476,NA,1,1,NA,815,1,1233.3333333333335,1233.3333333333335,2466.666666666667,-10
771_swingley_aslin_2002_15,12,opple,15,441,opple,distractor,71,33,0.6826923076923077,NA,1,1,NA,890,1,1183.3333333333335,1183.3333333333335,2366.666666666667,-10
771_swingley_aslin_2002_15,14,cur,15,441,cur,distractor,95,9,0.9134615384615384,NA,1,1,NA,290,0,1583.3333333333335,1583.3333333333335,3166.666666666667,-10
771_swingley_aslin_2002_15,16,gall,15,441,gall,target,51,54,0.4857142857142857,NA,1,NA,0,NA,1,850.0000000000001,850.0000000000001,1700.0000000000002,-10
771_swingley_aslin_2002_15,17,vaby,15,441,vaby,target,106,0,1,NA,1,NA,1,NA,0,1766.6666666666667,1766.6666666666667,3533.3333333333335,-10
772_swingley_aslin_2002_15,1,pity,15,442,pity,target,57,47,0.5480769230769231,NA,1,NA,0,NA,1,866.6666666666667,866.6666666666667,1733.3333333333335,-10
772_swingley_aslin_2002_15,6,tog,15,442,tog,distractor,53,48,0.5247524752475248,NA,1,1,NA,1215,1,883.3333333333334,883.3333333333334,1766.6666666666667,-10
772_swingley_aslin_2002_15,8,vaby,15,442,vaby,target,73,31,0.7019230769230769,NA,2,NA,0,NA,2,608.3333333333334,800,1600,-10
772_swingley_aslin_2002_15,9,gall,15,442,gall,distractor,40,64,0.38461538461538464,NA,1,1,NA,1290,2,666.6666666666667,666.6666666666667,1333.3333333333335,-10
772_swingley_aslin_2002_15,12,opple,15,442,opple,target,85,20,0.8095238095238095,NA,2,NA,0,NA,2,708.3333333333334,533.3333333333334,1766.6666666666667,-10
772_swingley_aslin_2002_15,16,gall,15,442,gall,distractor,63,41,0.6057692307692307,NA,1,1,NA,1090,1,1050,1050,2100,-10
772_swingley_aslin_2002_15,17,vaby,15,442,vaby,target,62,42,0.5961538461538461,NA,1,NA,0,NA,1,916.6666666666667,916.6666666666667,1833.3333333333335,-10
772_swingley_aslin_2002_15,20,tog,15,442,tog,neither,57,0,1,NA,1,NA,NA,NA,0,950.0000000000001,950.0000000000001,1900.0000000000002,-10
772_swingley_aslin_2002_15,22,pity,15,442,pity,neither,42,23,0.6461538461538462,NA,1,NA,NA,NA,1,700,700,1400,-10
773_swingley_aslin_2002_16,48,opal,16,443,opal,neither,29,34,0.4603174603174603,NA,1,NA,NA,NA,1,483.33333333333337,483.33333333333337,966.6666666666667,-9
773_swingley_aslin_2002_16,49,yitty,16,443,yitty,distractor,34,68,0.3333333333333333,NA,1,1,NA,790,2,566.6666666666667,566.6666666666667,1133.3333333333335,-9
773_swingley_aslin_2002_16,50,mog,16,443,mog,target,12,93,0.11428571428571428,NA,1,NA,0,NA,1,200,200,400,-9
773_swingley_aslin_2002_16,51,kier,16,443,kier,target,31,72,0.30097087378640774,NA,2,NA,0,NA,2,258.33333333333337,283.33333333333337,566.6666666666667,-9
773_swingley_aslin_2002_16,52,raby,16,443,raby,target,61,41,0.5980392156862745,NA,1,NA,1,NA,1,1016.6666666666667,1016.6666666666667,2033.3333333333335,-9
773_swingley_aslin_2002_16,53,shawl,16,443,shawl,distractor,34,71,0.3238095238095238,NA,1,0,NA,NA,1,566.6666666666667,566.6666666666667,1133.3333333333335,-9
773_swingley_aslin_2002_16,54,opal,16,443,opal,target,93,10,0.9029126213592233,NA,2,NA,0,NA,0,775,816.6666666666667,1633.3333333333335,-9
773_swingley_aslin_2002_16,55,shawl,16,443,shawl,target,76,28,0.7307692307692307,NA,2,NA,0,NA,2,633.3333333333334,316.6666666666667,1900.0000000000002,-9
773_swingley_aslin_2002_16,56,raby,16,443,raby,target,60,44,0.5769230769230769,NA,1,NA,0,NA,2,1000.0000000000001,1000.0000000000001,2000.0000000000002,-9
773_swingley_aslin_2002_16,57,mog,16,443,mog,distractor,69,36,0.6571428571428571,NA,1,1,NA,940,1,1150,1150,2300,-9
773_swingley_aslin_2002_16,58,kier,16,443,kier,distractor,0,106,0,NA,NA,0,NA,NA,0,NA,NA,NA,-9
773_swingley_aslin_2002_16,59,yitty,16,443,yitty,target,91,13,0.875,NA,1,NA,1,NA,1,1516.6666666666667,1516.6666666666667,3033.3333333333335,-9
774_swingley_aslin_2002_15,49,yitty,15,444,yitty,target,95,11,0.8962264150943396,NA,2,NA,0,NA,0,791.6666666666667,816.6666666666667,1633.3333333333335,-10
774_swingley_aslin_2002_15,50,mog,15,444,mog,distractor,2,103,0.01904761904761905,NA,NA,0,NA,NA,0,NA,NA,NA,-10
774_swingley_aslin_2002_15,51,kier,15,444,kier,distractor,12,92,0.11538461538461539,NA,1,0,NA,NA,1,200,200,400,-10
774_swingley_aslin_2002_15,52,raby,15,444,raby,neither,56,47,0.5436893203883495,NA,1,NA,NA,NA,1,933.3333333333334,933.3333333333334,1866.6666666666667,-10
774_swingley_aslin_2002_15,53,shawl,15,444,shawl,neither,24,81,0.22857142857142856,NA,1,NA,NA,NA,2,400,400,800,-10
774_swingley_aslin_2002_15,54,opal,15,444,opal,distractor,38,60,0.3877551020408163,NA,1,1,NA,940,2,633.3333333333334,633.3333333333334,1266.6666666666667,-10
774_swingley_aslin_2002_15,58,kier,15,444,kier,neither,38,66,0.36538461538461536,NA,2,NA,NA,NA,3,316.6666666666667,400,800,-10
774_swingley_aslin_2002_15,59,yitty,15,444,yitty,neither,58,45,0.5631067961165048,NA,2,NA,NA,NA,1,433.33333333333337,316.6666666666667,1100,-10
775_swingley_aslin_2002_15,34,yitty,15,445,yitty,target,73,22,0.7684210526315789,NA,1,NA,1,NA,1,1216.6666666666667,1216.6666666666667,2433.3333333333335,-10
775_swingley_aslin_2002_15,35,kier,15,445,kier,distractor,0,106,0,NA,NA,0,NA,NA,0,NA,NA,NA,-10
775_swingley_aslin_2002_15,36,mog,15,445,mog,target,106,0,1,NA,1,NA,1,NA,0,1766.6666666666667,1766.6666666666667,3533.3333333333335,-10
775_swingley_aslin_2002_15,37,raby,15,445,raby,distractor,37,66,0.3592233009708738,NA,1,1,NA,1090,2,616.6666666666667,616.6666666666667,1233.3333333333335,-10
775_swingley_aslin_2002_15,38,shawl,15,445,shawl,distractor,0,99,0,NA,NA,0,NA,NA,0,NA,NA,NA,-10
775_swingley_aslin_2002_15,39,opal,15,445,opal,distractor,34,68,0.3333333333333333,NA,1,1,NA,1190,2,533.3333333333334,533.3333333333334,1066.6666666666667,-10
775_swingley_aslin_2002_15,40,shawl,15,445,shawl,target,75,24,0.7575757575757576,NA,2,NA,0,NA,2,575,716.6666666666667,1433.3333333333335,-10
775_swingley_aslin_2002_15,41,raby,15,445,raby,target,86,17,0.8349514563106796,NA,2,NA,0,NA,2,716.6666666666667,250.00000000000003,2366.666666666667,-10
775_swingley_aslin_2002_15,42,kier,15,445,kier,distractor,0,106,0,NA,NA,0,NA,NA,0,NA,NA,NA,-10
775_swingley_aslin_2002_15,43,mog,15,445,mog,target,72,33,0.6857142857142857,NA,1,NA,1,NA,1,1200,1200,2400,-10
775_swingley_aslin_2002_15,44,yitty,15,445,yitty,target,106,0,1,NA,1,NA,1,NA,0,1766.6666666666667,1766.6666666666667,3533.3333333333335,-10
775_swingley_aslin_2002_15,45,opal,15,445,opal,neither,41,19,0.6833333333333333,NA,1,NA,NA,NA,1,683.3333333333334,683.3333333333334,1366.6666666666667,-10
776_swingley_aslin_2002_14,34,yitty,14,446,yitty,target,68,34,0.6666666666666666,NA,2,NA,0,NA,2,566.6666666666667,750,1500,-11
776_swingley_aslin_2002_14,35,kier,14,446,kier,target,68,37,0.6476190476190476,NA,1,NA,1,NA,1,1133.3333333333335,1133.3333333333335,2266.666666666667,-11
776_swingley_aslin_2002_14,36,mog,14,446,mog,neither,0,98,0,NA,NA,NA,NA,NA,0,NA,NA,NA,-11
776_swingley_aslin_2002_14,37,raby,14,446,raby,target,106,0,1,NA,1,NA,1,NA,0,1766.6666666666667,1766.6666666666667,3533.3333333333335,-11
776_swingley_aslin_2002_14,38,shawl,14,446,shawl,target,92,13,0.8761904761904762,NA,1,NA,1,NA,1,1533.3333333333335,1533.3333333333335,3066.666666666667,-11
776_swingley_aslin_2002_14,39,opal,14,446,opal,target,100,0,1,NA,2,NA,1,NA,0,833.3333333333334,983.3333333333334,1966.6666666666667,-11
776_swingley_aslin_2002_14,40,shawl,14,446,shawl,distractor,0,106,0,NA,NA,0,NA,NA,0,NA,NA,NA,-11
776_swingley_aslin_2002_14,41,raby,14,446,raby,distractor,35,69,0.33653846153846156,NA,1,1,NA,1340,2,583.3333333333334,583.3333333333334,1166.6666666666667,-11
776_swingley_aslin_2002_14,42,kier,14,446,kier,target,106,0,1,NA,1,NA,1,NA,0,1766.6666666666667,1766.6666666666667,3533.3333333333335,-11
776_swingley_aslin_2002_14,43,mog,14,446,mog,target,106,0,1,NA,1,NA,1,NA,0,1766.6666666666667,1766.6666666666667,3533.3333333333335,-11
776_swingley_aslin_2002_14,44,yitty,14,446,yitty,neither,27,34,0.4426229508196721,NA,1,NA,NA,NA,1,450.00000000000006,450.00000000000006,900.0000000000001,-11
776_swingley_aslin_2002_14,45,opal,14,446,opal,neither,65,11,0.8552631578947368,NA,1,NA,NA,NA,0,1083.3333333333335,1083.3333333333335,2166.666666666667,-11
777_swingley_aslin_2002_15,42,yitty,15,447,yitty,target,33,71,0.3173076923076923,NA,1,NA,0,NA,1,483.33333333333337,483.33333333333337,966.6666666666667,-10
777_swingley_aslin_2002_15,46,shawl,15,447,shawl,distractor,78,27,0.7428571428571429,NA,1,1,NA,715,1,1300,1300,2600,-10
777_swingley_aslin_2002_15,47,raby,15,447,raby,target,87,18,0.8285714285714286,NA,1,NA,1,NA,1,1450,1450,2900,-10
777_swingley_aslin_2002_15,51,yitty,15,447,yitty,distractor,0,106,0,NA,NA,0,NA,NA,0,NA,NA,NA,-10
777_swingley_aslin_2002_15,52,mog,15,447,mog,distractor,63,41,0.6057692307692307,NA,1,1,NA,1090,1,1050,1050,2100,-10
777_swingley_aslin_2002_15,55,shawl,15,447,shawl,target,106,0,1,NA,1,NA,1,NA,0,1766.6666666666667,1766.6666666666667,3533.3333333333335,-10
777_swingley_aslin_2002_15,58,opal,15,447,opal,neither,36,44,0.45,NA,1,NA,NA,NA,2,450.00000000000006,450.00000000000006,900.0000000000001,-10
777_swingley_aslin_2002_15,59,mog,15,447,mog,distractor,25,78,0.24271844660194175,NA,1,0,NA,NA,1,416.6666666666667,416.6666666666667,833.3333333333334,-10
777_swingley_aslin_2002_15,61,raby,15,447,raby,neither,91,0,1,NA,1,NA,NA,NA,0,1516.6666666666667,1516.6666666666667,3033.3333333333335,-10
777_swingley_aslin_2002_15,63,kier,15,447,kier,distractor,1,97,0.01020408163265306,NA,NA,0,NA,NA,0,NA,NA,NA,-10
778_swingley_aslin_2002_15,28,yitty,15,448,yitty,neither,24,79,0.23300970873786409,NA,1,NA,NA,NA,2,233.33333333333334,233.33333333333334,466.6666666666667,-10
778_swingley_aslin_2002_15,37,kier,15,448,kier,target,68,12,0.85,NA,1,NA,0,NA,1,1050,1050,2100,-10
778_swingley_aslin_2002_15,71,kier,15,448,kier,distractor,40,60,0.4,NA,2,1,NA,190,3,333.33333333333337,416.6666666666667,833.3333333333334,-10
778_swingley_aslin_2002_15,74,raby,15,448,raby,distractor,51,53,0.49038461538461536,NA,1,1,NA,1390,1,850.0000000000001,850.0000000000001,1700.0000000000002,-10
778_swingley_aslin_2002_15,76,mog,15,448,mog,target,75,30,0.7142857142857143,NA,2,NA,1,NA,2,625.0000000000001,1000.0000000000001,2000.0000000000002,-10
778_swingley_aslin_2002_15,79,shawl,15,448,shawl,distractor,105,0,1,NA,1,1,NA,40,0,1750.0000000000002,1750.0000000000002,3500.0000000000005,-10
778_swingley_aslin_2002_15,81,opal,15,448,opal,distractor,19,76,0.2,NA,1,1,NA,1315,2,316.6666666666667,316.6666666666667,633.3333333333334,-10
778_swingley_aslin_2002_15,82,mog,15,448,mog,neither,64,5,0.927536231884058,NA,1,NA,NA,NA,0,1066.6666666666667,1066.6666666666667,2133.3333333333335,-10
778_swingley_aslin_2002_15,83,yitty,15,448,yitty,distractor,23,83,0.2169811320754717,NA,1,0,NA,NA,1,383.33333333333337,383.33333333333337,766.6666666666667,-10
778_swingley_aslin_2002_15,87,raby,15,448,raby,target,45,59,0.4326923076923077,NA,1,NA,0,NA,1,733.3333333333334,733.3333333333334,1466.6666666666667,-10
779_swingley_aslin_2002_14,55,kier,14,449,kier,distractor,50,55,0.47619047619047616,NA,1,1,NA,1415,1,833.3333333333334,833.3333333333334,1666.6666666666667,-11
779_swingley_aslin_2002_14,92,raby,14,449,raby,target,18,86,0.17307692307692307,NA,1,NA,0,NA,1,233.33333333333334,233.33333333333334,466.6666666666667,-11
779_swingley_aslin_2002_14,94,mog,14,449,mog,target,106,0,1,NA,1,NA,1,NA,0,1766.6666666666667,1766.6666666666667,3533.3333333333335,-11
779_swingley_aslin_2002_14,97,shawl,14,449,shawl,target,92,13,0.8761904761904762,NA,1,NA,1,NA,1,1533.3333333333335,1533.3333333333335,3066.666666666667,-11
779_swingley_aslin_2002_14,99,opal,14,449,opal,distractor,10,92,0.09803921568627451,NA,NA,1,NA,990,0,NA,NA,NA,-11
779_swingley_aslin_2002_14,100,mog,14,449,mog,target,106,0,1,NA,1,NA,1,NA,0,1766.6666666666667,1766.6666666666667,3533.3333333333335,-11
779_swingley_aslin_2002_14,101,yitty,14,449,yitty,neither,23,81,0.22115384615384615,NA,1,NA,NA,NA,1,383.33333333333337,383.33333333333337,766.6666666666667,-11
779_swingley_aslin_2002_14,105,raby,14,449,raby,distractor,55,49,0.5288461538461539,NA,1,1,NA,515,2,916.6666666666667,916.6666666666667,1833.3333333333335,-11
779_swingley_aslin_2002_14,108,opal,14,449,opal,target,77,27,0.7403846153846154,NA,2,NA,0,NA,2,641.6666666666667,266.6666666666667,2033.3333333333335,-11
779_swingley_aslin_2002_14,110,shawl,14,449,shawl,distractor,52,12,0.8125,NA,2,1,NA,340,1,433.33333333333337,433.33333333333337,866.6666666666667,-11
780_swingley_aslin_2002_14,48,opal,14,450,opal,target,69,35,0.6634615384615384,NA,2,NA,0,NA,2,575,600,1200,-11
780_swingley_aslin_2002_14,49,yitty,14,450,yitty,distractor,94,10,0.9038461538461539,NA,1,1,NA,140,0,1566.6666666666667,1566.6666666666667,3133.3333333333335,-11
780_swingley_aslin_2002_14,50,mog,14,450,mog,target,53,51,0.5096153846153846,NA,1,NA,0,NA,1,883.3333333333334,883.3333333333334,1766.6666666666667,-11
780_swingley_aslin_2002_14,51,kier,14,450,kier,distractor,58,44,0.5686274509803921,NA,2,1,NA,90,2,483.33333333333337,733.3333333333334,1466.6666666666667,-11
780_swingley_aslin_2002_14,52,raby,14,450,raby,distractor,104,1,0.9904761904761905,NA,1,1,NA,15,0,1733.3333333333335,1733.3333333333335,3466.666666666667,-11
780_swingley_aslin_2002_14,53,shawl,14,450,shawl,distractor,58,47,0.5523809523809524,NA,1,1,NA,1215,1,966.6666666666667,966.6666666666667,1933.3333333333335,-11
780_swingley_aslin_2002_14,54,opal,14,450,opal,target,48,55,0.46601941747572817,NA,2,NA,0,NA,2,400,250.00000000000003,1100,-11
780_swingley_aslin_2002_14,55,shawl,14,450,shawl,target,43,60,0.4174757281553398,NA,1,NA,0,NA,2,600,600,1200,-11
780_swingley_aslin_2002_14,56,raby,14,450,raby,distractor,65,37,0.6372549019607843,NA,1,1,NA,990,1,900.0000000000001,900.0000000000001,1800.0000000000002,-11
780_swingley_aslin_2002_14,57,mog,14,450,mog,distractor,74,29,0.7184466019417476,NA,1,1,NA,815,1,1233.3333333333335,1233.3333333333335,2466.666666666667,-11
780_swingley_aslin_2002_14,58,kier,14,450,kier,distractor,58,44,0.5686274509803921,NA,1,1,NA,1140,1,966.6666666666667,966.6666666666667,1933.3333333333335,-11
780_swingley_aslin_2002_14,59,yitty,14,450,yitty,distractor,32,59,0.3516483516483517,NA,1,1,NA,890,2,533.3333333333334,533.3333333333334,1066.6666666666667,-11
781_swingley_aslin_2002_15,46,yitty,15,451,yitty,target,51,46,0.5257731958762887,NA,2,NA,0,NA,2,425,550,1100,-10
781_swingley_aslin_2002_15,55,kier,15,451,kier,target,74,0,1,NA,2,NA,1,NA,0,616.6666666666667,333.33333333333337,1800.0000000000002,-10
781_swingley_aslin_2002_15,89,kier,15,451,kier,distractor,83,21,0.7980769230769231,NA,1,1,NA,590,1,1383.3333333333335,1383.3333333333335,2766.666666666667,-10
781_swingley_aslin_2002_15,92,raby,15,451,raby,distractor,0,106,0,NA,NA,0,NA,NA,0,NA,NA,NA,-10
781_swingley_aslin_2002_15,94,mog,15,451,mog,target,55,50,0.5238095238095238,NA,1,NA,0,NA,1,916.6666666666667,916.6666666666667,1833.3333333333335,-10
781_swingley_aslin_2002_15,97,shawl,15,451,shawl,distractor,0,93,0,NA,NA,0,NA,NA,0,NA,NA,NA,-10
781_swingley_aslin_2002_15,99,opal,15,451,opal,distractor,0,106,0,NA,NA,0,NA,NA,0,NA,NA,NA,-10
781_swingley_aslin_2002_15,100,mog,15,451,mog,neither,53,2,0.9636363636363636,NA,1,NA,NA,NA,0,883.3333333333334,883.3333333333334,1766.6666666666667,-10
781_swingley_aslin_2002_15,101,yitty,15,451,yitty,target,106,0,1,NA,1,NA,1,NA,0,1766.6666666666667,1766.6666666666667,3533.3333333333335,-10
781_swingley_aslin_2002_15,105,raby,15,451,raby,target,52,50,0.5098039215686274,NA,1,NA,0,NA,1,866.6666666666667,866.6666666666667,1733.3333333333335,-10
781_swingley_aslin_2002_15,108,opal,15,451,opal,target,106,0,1,NA,1,NA,1,NA,0,1766.6666666666667,1766.6666666666667,3533.3333333333335,-10
781_swingley_aslin_2002_15,110,shawl,15,451,shawl,neither,15,57,0.20833333333333334,NA,1,NA,NA,NA,1,250.00000000000003,250.00000000000003,500.00000000000006,-10
782_swingley_aslin_2002_15,34,yitty,15,452,yitty,target,56,47,0.5436893203883495,NA,1,NA,0,NA,1,783.3333333333334,783.3333333333334,1566.6666666666667,-10
782_swingley_aslin_2002_15,35,kier,15,452,kier,target,72,30,0.7058823529411765,NA,2,NA,1,NA,2,600.0000000000001,950.0000000000001,1900.0000000000002,-10
782_swingley_aslin_2002_15,36,mog,15,452,mog,distractor,73,30,0.7087378640776699,NA,1,1,NA,290,1,1216.6666666666667,1216.6666666666667,2433.3333333333335,-10
782_swingley_aslin_2002_15,37,raby,15,452,raby,neither,25,47,0.3472222222222222,NA,1,NA,NA,NA,2,416.6666666666667,416.6666666666667,833.3333333333334,-10
782_swingley_aslin_2002_15,38,shawl,15,452,shawl,distractor,72,30,0.7058823529411765,NA,1,1,NA,740,1,1200,1200,2400,-10
782_swingley_aslin_2002_15,41,raby,15,452,raby,distractor,54,47,0.5346534653465347,NA,1,1,NA,890,2,900.0000000000001,900.0000000000001,1800.0000000000002,-10
782_swingley_aslin_2002_15,42,kier,15,452,kier,distractor,90,13,0.8737864077669902,NA,1,1,NA,415,1,1500,1500,3000,-10
782_swingley_aslin_2002_15,43,mog,15,452,mog,neither,85,0,1,NA,1,NA,NA,NA,0,1416.6666666666667,1416.6666666666667,2833.3333333333335,-10
782_swingley_aslin_2002_15,44,yitty,15,452,yitty,distractor,65,37,0.6372549019607843,NA,1,1,NA,490,2,1083.3333333333335,1083.3333333333335,2166.666666666667,-10
783_swingley_aslin_2002_15,34,yitty,15,453,yitty,target,62,39,0.6138613861386139,NA,2,NA,0,NA,2,516.6666666666667,550,1100,-10
783_swingley_aslin_2002_15,36,mog,15,453,mog,distractor,0,106,0,NA,NA,0,NA,NA,0,NA,NA,NA,-10
783_swingley_aslin_2002_15,37,raby,15,453,raby,target,64,41,0.6095238095238096,NA,1,NA,1,NA,1,1066.6666666666667,1066.6666666666667,2133.3333333333335,-10
783_swingley_aslin_2002_15,38,shawl,15,453,shawl,neither,33,46,0.4177215189873418,NA,2,NA,NA,NA,3,275,200,700,-10
783_swingley_aslin_2002_15,39,opal,15,453,opal,target,49,33,0.5975609756097561,NA,1,NA,0,NA,1,816.6666666666667,816.6666666666667,1633.3333333333335,-10
783_swingley_aslin_2002_15,41,raby,15,453,raby,target,106,0,1,NA,1,NA,1,NA,0,1766.6666666666667,1766.6666666666667,3533.3333333333335,-10
783_swingley_aslin_2002_15,44,yitty,15,453,yitty,neither,0,105,0,NA,NA,NA,NA,NA,0,NA,NA,NA,-10
784_swingley_aslin_2002_15,33,kier,15,454,kier,distractor,55,49,0.5288461538461539,NA,1,1,NA,1290,1,916.6666666666667,916.6666666666667,1833.3333333333335,-10
784_swingley_aslin_2002_15,42,yitty,15,454,yitty,distractor,30,75,0.2857142857142857,NA,1,1,NA,740,2,500.00000000000006,500.00000000000006,1000.0000000000001,-10
784_swingley_aslin_2002_15,46,shawl,15,454,shawl,distractor,68,31,0.6868686868686869,NA,2,1,NA,90,2,566.6666666666667,816.6666666666667,1633.3333333333335,-10
784_swingley_aslin_2002_15,47,raby,15,454,raby,target,60,45,0.5714285714285714,NA,1,NA,1,NA,1,1000.0000000000001,1000.0000000000001,2000.0000000000002,-10
784_swingley_aslin_2002_15,51,yitty,15,454,yitty,distractor,0,106,0,NA,NA,0,NA,NA,0,NA,NA,NA,-10
784_swingley_aslin_2002_15,53,opal,15,454,opal,distractor,46,58,0.4423076923076923,NA,1,1,NA,290,1,766.6666666666667,766.6666666666667,1533.3333333333335,-10
784_swingley_aslin_2002_15,55,shawl,15,454,shawl,target,37,67,0.3557692307692308,NA,2,NA,0,NA,2,308.33333333333337,200,833.3333333333334,-10
784_swingley_aslin_2002_15,58,opal,15,454,opal,neither,24,68,0.2608695652173913,NA,1,NA,NA,NA,2,350,350,700,-10
784_swingley_aslin_2002_15,61,raby,15,454,raby,target,44,61,0.41904761904761906,NA,1,NA,0,NA,1,733.3333333333334,733.3333333333334,1466.6666666666667,-10
785_swingley_aslin_2002_14,45,opal,14,455,opal,target,39,65,0.375,NA,1,NA,0,NA,1,650,650,1300,-11
785_swingley_aslin_2002_14,46,yitty,14,455,yitty,target,87,16,0.8446601941747572,NA,2,NA,0,NA,2,725,350,2200,-11
785_swingley_aslin_2002_14,47,mog,14,455,mog,distractor,52,47,0.5252525252525253,NA,1,1,NA,290,1,833.3333333333334,833.3333333333334,1666.6666666666667,-11
785_swingley_aslin_2002_14,48,kier,14,455,kier,distractor,16,87,0.1553398058252427,NA,1,1,NA,1090,2,266.6666666666667,266.6666666666667,533.3333333333334,-11
785_swingley_aslin_2002_14,49,raby,14,455,raby,distractor,81,23,0.7788461538461539,NA,1,1,NA,640,1,1350,1350,2700,-11
785_swingley_aslin_2002_14,50,shawl,14,455,shawl,target,62,41,0.6019417475728155,NA,2,NA,0,NA,2,516.6666666666667,516.6666666666667,1033.3333333333335,-11
785_swingley_aslin_2002_14,51,opal,14,455,opal,distractor,50,55,0.47619047619047616,NA,1,1,NA,1415,1,833.3333333333334,833.3333333333334,1666.6666666666667,-11
785_swingley_aslin_2002_14,52,shawl,14,455,shawl,target,68,33,0.6732673267326733,NA,2,NA,0,NA,2,566.6666666666667,616.6666666666667,1233.3333333333335,-11
785_swingley_aslin_2002_14,53,raby,14,455,raby,target,68,34,0.6666666666666666,NA,1,NA,0,NA,1,1050,1050,2100,-11
785_swingley_aslin_2002_14,54,mog,14,455,mog,distractor,45,58,0.4368932038834951,NA,2,1,NA,115,2,375,466.6666666666667,933.3333333333334,-11
785_swingley_aslin_2002_14,55,kier,14,455,kier,distractor,59,45,0.5673076923076923,NA,1,1,NA,1190,1,983.3333333333334,983.3333333333334,1966.6666666666667,-11
785_swingley_aslin_2002_14,56,yitty,14,455,yitty,target,91,0,1,NA,1,NA,1,NA,0,1516.6666666666667,1516.6666666666667,3033.3333333333335,-11
786_swingley_aslin_2002_15,35,kier,15,456,kier,target,30,69,0.30303030303030304,NA,1,NA,0,NA,2,266.6666666666667,266.6666666666667,533.3333333333334,-10
786_swingley_aslin_2002_15,36,mog,15,456,mog,distractor,40,63,0.3883495145631068,NA,1,1,NA,690,2,666.6666666666667,666.6666666666667,1333.3333333333335,-10
786_swingley_aslin_2002_15,37,raby,15,456,raby,target,28,76,0.2692307692307692,NA,1,NA,0,NA,1,466.6666666666667,466.6666666666667,933.3333333333334,-10
786_swingley_aslin_2002_15,38,shawl,15,456,shawl,target,78,18,0.8125,NA,2,NA,0,NA,2,650.0000000000001,266.6666666666667,2066.666666666667,-10
786_swingley_aslin_2002_15,39,opal,15,456,opal,target,84,18,0.8235294117647058,NA,2,NA,0,NA,2,700,350,2100,-10
786_swingley_aslin_2002_15,40,shawl,15,456,shawl,distractor,105,0,1,NA,1,1,NA,40,0,1750.0000000000002,1750.0000000000002,3500.0000000000005,-10
786_swingley_aslin_2002_15,41,raby,15,456,raby,distractor,0,106,0,NA,NA,0,NA,NA,0,NA,NA,NA,-10
786_swingley_aslin_2002_15,42,kier,15,456,kier,distractor,23,70,0.24731182795698925,NA,1,1,NA,240,2,216.66666666666669,216.66666666666669,433.33333333333337,-10
786_swingley_aslin_2002_15,43,mog,15,456,mog,distractor,24,79,0.23300970873786409,NA,1,1,NA,540,2,400,400,800,-10
786_swingley_aslin_2002_15,44,yitty,15,456,yitty,target,50,51,0.49504950495049505,NA,2,NA,0,NA,2,416.6666666666667,550,1100,-10
786_swingley_aslin_2002_15,45,opal,15,456,opal,target,82,23,0.780952380952381,NA,1,NA,1,NA,1,1200,1200,2400,-10
787_swingley_aslin_2002_14,48,opal,14,457,opal,distractor,54,50,0.5192307692307693,NA,1,1,NA,440,2,900.0000000000001,900.0000000000001,1800.0000000000002,-11
787_swingley_aslin_2002_14,49,yitty,14,457,yitty,neither,21,81,0.20588235294117646,NA,1,NA,NA,NA,2,266.6666666666667,266.6666666666667,533.3333333333334,-11
787_swingley_aslin_2002_14,50,mog,14,457,mog,distractor,54,51,0.5142857142857142,NA,1,1,NA,1315,1,900.0000000000001,900.0000000000001,1800.0000000000002,-11
787_swingley_aslin_2002_14,51,kier,14,457,kier,distractor,50,51,0.49504950495049505,NA,2,1,NA,540,3,416.6666666666667,300,1066.6666666666667,-11
787_swingley_aslin_2002_14,52,raby,14,457,raby,distractor,37,56,0.3978494623655914,NA,1,1,NA,740,2,566.6666666666667,566.6666666666667,1133.3333333333335,-11
787_swingley_aslin_2002_14,53,shawl,14,457,shawl,distractor,13,90,0.1262135922330097,NA,1,1,NA,990,2,216.66666666666669,216.66666666666669,433.33333333333337,-11
787_swingley_aslin_2002_14,54,opal,14,457,opal,target,82,21,0.7961165048543689,NA,2,NA,0,NA,2,683.3333333333334,416.6666666666667,1900.0000000000002,-11
787_swingley_aslin_2002_14,55,shawl,14,457,shawl,target,45,56,0.44554455445544555,NA,2,NA,0,NA,2,375,216.66666666666669,1066.6666666666667,-11
787_swingley_aslin_2002_14,56,raby,14,457,raby,target,76,27,0.7378640776699029,NA,2,NA,0,NA,2,633.3333333333334,450.00000000000006,1633.3333333333335,-11
787_swingley_aslin_2002_14,57,mog,14,457,mog,distractor,16,89,0.1523809523809524,NA,1,0,NA,NA,1,266.6666666666667,266.6666666666667,533.3333333333334,-11
787_swingley_aslin_2002_14,58,kier,14,457,kier,distractor,28,72,0.28,NA,2,1,NA,915,3,233.33333333333334,266.6666666666667,533.3333333333334,-11
787_swingley_aslin_2002_14,59,yitty,14,457,yitty,target,56,30,0.6511627906976745,NA,2,NA,0,NA,2,416.66666666666674,516.6666666666667,1033.3333333333335,-11
788_swingley_aslin_2002_15,48,opal,15,458,opal,distractor,58,43,0.5742574257425742,NA,1,1,NA,590,2,966.6666666666667,966.6666666666667,1933.3333333333335,-10
788_swingley_aslin_2002_15,49,yitty,15,458,yitty,distractor,13,91,0.125,NA,1,0,NA,NA,1,216.66666666666669,216.66666666666669,433.33333333333337,-10
788_swingley_aslin_2002_15,50,mog,15,458,mog,target,74,30,0.7115384615384616,NA,1,NA,1,NA,1,1200,1200,2400,-10
788_swingley_aslin_2002_15,51,kier,15,458,kier,target,4,101,0.0380952380952381,NA,NA,NA,0,NA,0,NA,NA,NA,-10
788_swingley_aslin_2002_15,52,raby,15,458,raby,target,68,34,0.6666666666666666,NA,1,NA,0,NA,1,1116.6666666666667,1116.6666666666667,2233.3333333333335,-10
788_swingley_aslin_2002_15,53,shawl,15,458,shawl,target,106,0,1,NA,1,NA,1,NA,0,1766.6666666666667,1766.6666666666667,3533.3333333333335,-10
788_swingley_aslin_2002_15,54,opal,15,458,opal,target,73,31,0.7019230769230769,NA,1,NA,1,NA,1,1216.6666666666667,1216.6666666666667,2433.3333333333335,-10
788_swingley_aslin_2002_15,55,shawl,15,458,shawl,target,73,31,0.7019230769230769,NA,1,NA,1,NA,1,1216.6666666666667,1216.6666666666667,2433.3333333333335,-10
788_swingley_aslin_2002_15,56,raby,15,458,raby,target,106,0,1,NA,1,NA,1,NA,0,1766.6666666666667,1766.6666666666667,3533.3333333333335,-10
788_swingley_aslin_2002_15,57,mog,15,458,mog,distractor,63,39,0.6176470588235294,NA,2,1,NA,315,2,525,333.33333333333337,1433.3333333333335,-10
788_swingley_aslin_2002_15,59,yitty,15,458,yitty,distractor,51,53,0.49038461538461536,NA,1,1,NA,315,1,850.0000000000001,850.0000000000001,1700.0000000000002,-10
789_swingley_aslin_2002_15,45,opal,15,459,opal,distractor,13,87,0.13,NA,1,1,NA,790,2,216.66666666666669,216.66666666666669,433.33333333333337,-10
789_swingley_aslin_2002_15,46,yitty,15,459,yitty,distractor,42,54,0.4375,NA,2,1,NA,815,3,350,416.6666666666667,833.3333333333334,-10
789_swingley_aslin_2002_15,47,mog,15,459,mog,distractor,38,64,0.37254901960784315,NA,1,0,NA,NA,1,633.3333333333334,633.3333333333334,1266.6666666666667,-10
789_swingley_aslin_2002_15,48,kier,15,459,kier,target,61,42,0.5922330097087378,NA,2,NA,0,NA,2,508.33333333333337,600,1200,-10
789_swingley_aslin_2002_15,49,raby,15,459,raby,distractor,66,36,0.6470588235294118,NA,1,1,NA,90,1,1100,1100,2200,-10
789_swingley_aslin_2002_15,50,shawl,15,459,shawl,target,66,35,0.6534653465346535,NA,2,NA,0,NA,2,550,616.6666666666667,1233.3333333333335,-10
789_swingley_aslin_2002_15,52,shawl,15,459,shawl,neither,55,38,0.5913978494623656,NA,1,NA,NA,NA,1,916.6666666666667,916.6666666666667,1833.3333333333335,-10
789_swingley_aslin_2002_15,53,raby,15,459,raby,distractor,75,29,0.7211538461538461,NA,1,1,NA,790,1,1250,1250,2500,-10
789_swingley_aslin_2002_15,55,kier,15,459,kier,distractor,44,61,0.41904761904761906,NA,1,1,NA,415,2,733.3333333333334,733.3333333333334,1466.6666666666667,-10
790_swingley_aslin_2002_15,1,cur,15,460,cur,distractor,93,11,0.8942307692307693,NA,1,1,NA,190,0,1550,1550,3100,-10
790_swingley_aslin_2002_15,95,gall,15,460,gall,target,64,41,0.6095238095238096,NA,1,NA,1,NA,1,1066.6666666666667,1066.6666666666667,2133.3333333333335,-10
790_swingley_aslin_2002_15,97,vaby,15,460,vaby,distractor,86,20,0.8113207547169812,NA,1,1,NA,515,1,1433.3333333333335,1433.3333333333335,2866.666666666667,-10
790_swingley_aslin_2002_15,98,pity,15,460,pity,neither,33,65,0.336734693877551,NA,1,NA,NA,NA,1,550,550,1100,-10
790_swingley_aslin_2002_15,99,tog,15,460,tog,distractor,35,69,0.33653846153846156,NA,1,1,NA,1315,2,583.3333333333334,583.3333333333334,1166.6666666666667,-10
790_swingley_aslin_2002_15,100,opple,15,460,opple,neither,51,31,0.6219512195121951,NA,2,NA,NA,NA,1,383.33333333333337,366.6666666666667,800,-10
790_swingley_aslin_2002_15,101,gall,15,460,gall,distractor,43,38,0.5308641975308642,NA,1,0,NA,NA,1,716.6666666666667,716.6666666666667,1433.3333333333335,-10
790_swingley_aslin_2002_15,102,tog,15,460,tog,target,77,25,0.7549019607843137,NA,2,NA,0,NA,2,641.6666666666667,583.3333333333334,1400,-10
790_swingley_aslin_2002_15,103,vaby,15,460,vaby,distractor,45,60,0.42857142857142855,NA,1,0,NA,NA,1,750,750,1500,-10
