recording_name,trial_number,target_word,age_months,subject_id,media_name,initial_look,samples_target,samples_distractor,prop_looking,prop_looking_diff,number_fixations,correct_shift,remain_on_target,latency_to_switch,total_aoi_switches,duration_of_look,first_look_dur,longest_look_by_trial,age_months_centred
0_casillas_tseltal_2015_14,1,wa,14,0,tortilla,distractor,0,106,0,NA,NA,0,NA,NA,0,NA,NA,NA,-11
0_casillas_tseltal_2015_14,2,moch,14,0,basket-tseltal,distractor,0,106,0,NA,NA,0,NA,NA,0,NA,NA,NA,-11
0_casillas_tseltal_2015_14,3,pelota,14,0,ball,distractor,0,106,0,NA,NA,0,NA,NA,0,NA,NA,NA,-11
0_casillas_tseltal_2015_14,4,chojak',14,0,purse-tseltal,distractor,0,106,0,NA,NA,0,NA,NA,0,NA,NA,NA,-11
0_casillas_tseltal_2015_14,5,baso,14,0,cup,distractor,27,76,0.2621359223300971,NA,1,1,NA,490,2,450.00000000000006,450.00000000000006,1080,-11
0_casillas_tseltal_2015_14,7,balti,14,0,bucket,distractor,15,86,0.1485148514851485,NA,1,0,NA,NA,1,250.00000000000003,250.00000000000003,600,-11
0_casillas_tseltal_2015_14,11,xawin,14,0,cat,distractor,0,106,0,NA,NA,0,NA,NA,0,NA,NA,NA,-11
0_casillas_tseltal_2015_14,12,ja',14,0,water,distractor,96,8,0.9230769230769231,NA,1,1,NA,215,0,1600,1600,3840,-11
0_casillas_tseltal_2015_14,15,na,14,0,house,distractor,0,106,0,NA,NA,0,NA,NA,0,NA,NA,NA,-11
0_casillas_tseltal_2015_14,18,t'inel,14,0,doorway,distractor,22,80,0.21568627450980393,NA,1,1,NA,615,2,366.6666666666667,366.6666666666667,880,-11
0_casillas_tseltal_2015_14,21,tz'i,14,0,dog,distractor,0,106,0,NA,NA,0,NA,NA,0,NA,NA,NA,-11
0_casillas_tseltal_2015_14,22,tomut,14,0,egg,distractor,0,106,0,NA,NA,0,NA,NA,0,NA,NA,NA,-11
0_casillas_tseltal_2015_14,27,mes,14,0,broom,distractor,0,106,0,NA,NA,0,NA,NA,0,NA,NA,NA,-11
0_casillas_tseltal_2015_14,28,machit,14,0,machete,distractor,0,106,0,NA,NA,0,NA,NA,0,NA,NA,NA,-11
0_casillas_tseltal_2015_14,29,si',14,0,firewood,distractor,69,35,0.6634615384615384,NA,1,1,NA,940,1,1150,1150,2760,-11
1_casillas_tseltal_2015_22,2,moch,22,1,basket-tseltal,distractor,35,66,0.3465346534653465,NA,1,1,NA,415,2,583.3333333333334,583.3333333333334,1400,-3
1_casillas_tseltal_2015_22,5,baso,22,1,cup,distractor,70,32,0.6862745098039216,NA,1,1,NA,540,2,1166.6666666666667,1166.6666666666667,2800,-3
1_casillas_tseltal_2015_22,7,balti,22,1,bucket,distractor,5,98,0.04854368932038835,NA,NA,0,NA,NA,0,NA,NA,NA,-3
1_casillas_tseltal_2015_22,8,mut,22,1,chicken,distractor,48,54,0.47058823529411764,NA,1,0,NA,NA,1,800,800,1920,-3
1_casillas_tseltal_2015_22,11,xawin,22,1,cat,distractor,61,42,0.5922330097087378,NA,1,1,NA,1140,1,1016.6666666666667,1016.6666666666667,2440,-3
1_casillas_tseltal_2015_22,12,ja',22,1,water,distractor,58,46,0.5576923076923077,NA,1,1,NA,1215,1,966.6666666666667,966.6666666666667,2320,-3
1_casillas_tseltal_2015_22,13,ixim,22,1,corn,distractor,79,24,0.7669902912621359,NA,1,1,NA,690,1,1316.6666666666667,1316.6666666666667,3160,-3
1_casillas_tseltal_2015_22,15,na,22,1,house,distractor,0,106,0,NA,NA,0,NA,NA,0,NA,NA,NA,-3
1_casillas_tseltal_2015_22,16,te,22,1,tree,distractor,0,106,0,NA,NA,0,NA,NA,0,NA,NA,NA,-3
1_casillas_tseltal_2015_22,17,waybal,22,1,bed,distractor,46,52,0.46938775510204084,NA,2,1,NA,465,4,383.33333333333337,500.00000000000006,1200,-3
1_casillas_tseltal_2015_22,18,t'inel,22,1,doorway,distractor,52,53,0.49523809523809526,NA,1,1,NA,1365,1,866.6666666666667,866.6666666666667,2080,-3
1_casillas_tseltal_2015_22,20,chenek',22,1,bean,distractor,0,106,0,NA,NA,0,NA,NA,0,NA,NA,NA,-3
1_casillas_tseltal_2015_22,22,tomut,22,1,egg,distractor,0,106,0,NA,NA,0,NA,NA,0,NA,NA,NA,-3
1_casillas_tseltal_2015_22,25,ich,22,1,chile,distractor,63,42,0.6,NA,1,1,NA,1090,1,1050,1050,2520,-3
1_casillas_tseltal_2015_22,26,xila,22,1,chair,distractor,53,50,0.5145631067961165,NA,1,1,NA,1340,1,883.3333333333334,883.3333333333334,2120,-3
1_casillas_tseltal_2015_22,28,machit,22,1,machete,distractor,63,40,0.6116504854368932,NA,1,1,NA,1090,1,1050,1050,2520,-3
1_casillas_tseltal_2015_22,29,si',22,1,firewood,distractor,26,77,0.2524271844660194,NA,1,0,NA,NA,1,433.33333333333337,433.33333333333337,1040,-3
1_casillas_tseltal_2015_22,30,bojch,22,1,bowl-tseltal,distractor,77,26,0.7475728155339806,NA,1,1,NA,740,1,1283.3333333333335,1283.3333333333335,3080,-3
2_casillas_tseltal_2015_45,2,moch,45,2,basket-tseltal,distractor,59,42,0.5841584158415841,NA,1,1,NA,690,2,983.3333333333334,983.3333333333334,2360,20
2_casillas_tseltal_2015_45,4,chojak',45,2,purse-tseltal,distractor,47,47,0.5,NA,1,1,NA,565,2,783.3333333333334,783.3333333333334,1880,20
2_casillas_tseltal_2015_45,5,baso,45,2,cup,distractor,70,26,0.7291666666666666,NA,1,1,NA,140,1,1033.3333333333335,1033.3333333333335,2480,20
2_casillas_tseltal_2015_45,7,balti,45,2,bucket,distractor,51,48,0.5151515151515151,NA,1,1,NA,290,1,850.0000000000001,850.0000000000001,2040,20
2_casillas_tseltal_2015_45,9,k'ajk',45,2,fire,distractor,68,34,0.6666666666666666,NA,1,1,NA,165,1,1133.3333333333335,1133.3333333333335,2720,20
2_casillas_tseltal_2015_45,13,ixim,45,2,corn,distractor,59,39,0.6020408163265306,NA,2,1,NA,415,3,491.6666666666667,750,1800,20
2_casillas_tseltal_2015_45,16,te,45,2,tree,distractor,61,31,0.6630434782608695,NA,1,1,NA,290,1,1016.6666666666667,1016.6666666666667,2440,20
2_casillas_tseltal_2015_45,19,lo'bal,45,2,banana,distractor,63,10,0.863013698630137,NA,1,1,NA,765,0,1050,1050,2520,20
2_casillas_tseltal_2015_45,22,tomut,45,2,egg,distractor,37,53,0.4111111111111111,NA,1,1,NA,65,1,450.00000000000006,450.00000000000006,1080,20
2_casillas_tseltal_2015_45,25,ich,45,2,chile,distractor,86,14,0.86,NA,1,1,NA,340,0,1433.3333333333335,1433.3333333333335,3440,20
2_casillas_tseltal_2015_45,26,xila,45,2,chair,distractor,69,32,0.6831683168316832,NA,1,1,NA,290,1,1150,1150,2760,20
2_casillas_tseltal_2015_45,29,si',45,2,firewood,distractor,104,0,1,NA,1,1,NA,65,0,1733.3333333333335,1733.3333333333335,4160,20
2_casillas_tseltal_2015_45,30,bojch,45,2,bowl-tseltal,distractor,74,30,0.7115384615384616,NA,1,1,NA,215,1,1233.3333333333335,1233.3333333333335,2960,20
3_casillas_tseltal_2015_22,1,wa,22,3,tortilla,distractor,11,84,0.11578947368421053,NA,NA,0,NA,NA,0,NA,NA,NA,-3
3_casillas_tseltal_2015_22,4,chojak',22,3,purse-tseltal,distractor,0,106,0,NA,NA,0,NA,NA,0,NA,NA,NA,-3
3_casillas_tseltal_2015_22,5,baso,22,3,cup,distractor,88,16,0.8461538461538461,NA,1,1,NA,465,1,1466.6666666666667,1466.6666666666667,3520,-3
3_casillas_tseltal_2015_22,7,balti,22,3,bucket,distractor,50,34,0.5952380952380952,NA,1,1,NA,890,1,833.3333333333334,833.3333333333334,2000,-3
3_casillas_tseltal_2015_22,11,xawin,22,3,cat,distractor,34,69,0.3300970873786408,NA,1,0,NA,NA,1,566.6666666666667,566.6666666666667,1360,-3
3_casillas_tseltal_2015_22,13,ixim,22,3,corn,distractor,61,43,0.5865384615384616,NA,1,1,NA,1140,1,1016.6666666666667,1016.6666666666667,2440,-3
3_casillas_tseltal_2015_22,15,na,22,3,house,distractor,0,106,0,NA,NA,0,NA,NA,0,NA,NA,NA,-3
3_casillas_tseltal_2015_22,16,te,22,3,tree,distractor,0,106,0,NA,NA,0,NA,NA,0,NA,NA,NA,-3
3_casillas_tseltal_2015_22,17,waybal,22,3,bed,distractor,63,39,0.6176470588235294,NA,1,1,NA,490,2,1050,1050,2520,-3
3_casillas_tseltal_2015_22,19,lo'bal,22,3,banana,distractor,22,80,0.21568627450980393,NA,1,0,NA,NA,1,366.6666666666667,366.6666666666667,880,-3
3_casillas_tseltal_2015_22,20,chenek',22,3,bean,distractor,87,18,0.8285714285714286,NA,1,1,NA,490,1,1450,1450,3480,-3
3_casillas_tseltal_2015_22,21,tz'i,22,3,dog,distractor,39,66,0.37142857142857144,NA,1,0,NA,NA,1,650,650,1560,-3
3_casillas_tseltal_2015_22,23,p'in,22,3,pot-tseltal,distractor,36,66,0.35294117647058826,NA,1,0,NA,NA,1,600,600,1440,-3
3_casillas_tseltal_2015_22,24,tzek',22,3,skirt-tseltal,distractor,4,99,0.038834951456310676,NA,NA,0,NA,NA,0,NA,NA,NA,-3
3_casillas_tseltal_2015_22,27,mes,22,3,broom,distractor,88,2,0.9777777777777777,NA,1,1,NA,465,0,1466.6666666666667,1466.6666666666667,3520,-3
3_casillas_tseltal_2015_22,28,machit,22,3,machete,distractor,15,90,0.14285714285714285,NA,1,0,NA,NA,1,250.00000000000003,250.00000000000003,600,-3
4_casillas_tseltal_2015_45,1,wa,45,4,tortilla,distractor,0,106,0,NA,NA,0,NA,NA,0,NA,NA,NA,20
4_casillas_tseltal_2015_45,2,moch,45,4,basket-tseltal,distractor,84,21,0.8,NA,1,1,NA,565,1,1400,1400,3360,20
4_casillas_tseltal_2015_45,4,chojak',45,4,purse-tseltal,distractor,29,71,0.29,NA,1,1,NA,365,1,483.33333333333337,483.33333333333337,1160,20
4_casillas_tseltal_2015_45,5,baso,45,4,cup,distractor,98,6,0.9423076923076923,NA,1,1,NA,215,0,1633.3333333333335,1633.3333333333335,3920,20
4_casillas_tseltal_2015_45,7,balti,45,4,bucket,distractor,56,47,0.5436893203883495,NA,1,1,NA,340,1,933.3333333333334,933.3333333333334,2240,20
4_casillas_tseltal_2015_45,8,mut,45,4,chicken,distractor,53,38,0.5824175824175825,NA,2,1,NA,540,2,441.66666666666674,266.6666666666667,1480,20
4_casillas_tseltal_2015_45,9,k'ajk',45,4,fire,distractor,67,29,0.6979166666666666,NA,1,1,NA,290,1,1116.6666666666667,1116.6666666666667,2680,20
4_casillas_tseltal_2015_45,10,mexa,45,4,table,distractor,101,3,0.9711538461538461,NA,1,1,NA,140,0,1683.3333333333335,1683.3333333333335,4040,20
4_casillas_tseltal_2015_45,11,xawin,45,4,cat,distractor,44,58,0.43137254901960786,NA,1,1,NA,265,1,733.3333333333334,733.3333333333334,1760,20
4_casillas_tseltal_2015_45,16,te,45,4,tree,distractor,65,24,0.7303370786516854,NA,1,1,NA,665,1,1083.3333333333335,1083.3333333333335,2600,20
4_casillas_tseltal_2015_45,17,waybal,45,4,bed,distractor,85,19,0.8173076923076923,NA,1,1,NA,540,1,1416.6666666666667,1416.6666666666667,3400,20
4_casillas_tseltal_2015_45,18,t'inel,45,4,doorway,distractor,11,90,0.10891089108910891,NA,NA,1,NA,865,0,NA,NA,NA,20
4_casillas_tseltal_2015_45,19,lo'bal,45,4,banana,distractor,76,24,0.76,NA,2,1,NA,490,1,633.3333333333334,833.3333333333334,2000,20
4_casillas_tseltal_2015_45,20,chenek',45,4,bean,distractor,51,50,0.504950495049505,NA,1,1,NA,415,2,850.0000000000001,850.0000000000001,2040,20
4_casillas_tseltal_2015_45,22,tomut,45,4,egg,distractor,72,31,0.6990291262135923,NA,1,1,NA,165,1,1200,1200,2880,20
4_casillas_tseltal_2015_45,23,p'in,45,4,pot-tseltal,distractor,68,30,0.6938775510204082,NA,2,1,NA,415,3,566.6666666666667,800,1920,20
4_casillas_tseltal_2015_45,24,tzek',45,4,skirt-tseltal,distractor,64,37,0.6336633663366337,NA,1,1,NA,665,2,1066.6666666666667,1066.6666666666667,2560,20
4_casillas_tseltal_2015_45,27,mes,45,4,broom,distractor,72,31,0.6990291262135923,NA,1,1,NA,365,2,1200,1200,2880,20
4_casillas_tseltal_2015_45,30,bojch,45,4,bowl-tseltal,distractor,78,22,0.78,NA,1,1,NA,615,1,1300,1300,3120,20
5_casillas_tseltal_2015_27,4,chojak',27,5,purse-tseltal,distractor,21,81,0.20588235294117646,NA,1,1,NA,815,2,350,350,840,2
5_casillas_tseltal_2015_27,5,baso,27,5,cup,distractor,66,38,0.6346153846153846,NA,1,1,NA,490,2,1100,1100,2640,2
5_casillas_tseltal_2015_27,7,balti,27,5,bucket,distractor,89,15,0.8557692307692307,NA,2,1,NA,15,2,741.6666666666667,483.33333333333337,2400,2
5_casillas_tseltal_2015_27,8,mut,27,5,chicken,distractor,93,11,0.8942307692307693,NA,1,1,NA,340,0,1550,1550,3720,2
5_casillas_tseltal_2015_27,9,k'ajk',27,5,fire,distractor,66,29,0.6947368421052632,NA,2,1,NA,340,3,550,750,1800,2
5_casillas_tseltal_2015_27,10,mexa,27,5,table,distractor,61,40,0.6039603960396039,NA,1,1,NA,415,2,1016.6666666666667,1016.6666666666667,2440,2
5_casillas_tseltal_2015_27,16,te,27,5,tree,distractor,0,106,0,NA,NA,0,NA,NA,0,NA,NA,NA,2
5_casillas_tseltal_2015_27,18,t'inel,27,5,doorway,distractor,26,72,0.2653061224489796,NA,1,1,NA,365,1,433.33333333333337,433.33333333333337,1040,2
5_casillas_tseltal_2015_27,19,lo'bal,27,5,banana,distractor,98,6,0.9423076923076923,NA,1,1,NA,215,0,1633.3333333333335,1633.3333333333335,3920,2
5_casillas_tseltal_2015_27,20,chenek',27,5,bean,distractor,39,66,0.37142857142857144,NA,1,0,NA,NA,1,650,650,1560,2
5_casillas_tseltal_2015_27,21,tz'i,27,5,dog,distractor,82,19,0.8118811881188119,NA,1,1,NA,215,1,1366.6666666666667,1366.6666666666667,3280,2
5_casillas_tseltal_2015_27,22,tomut,27,5,egg,distractor,40,63,0.3883495145631068,NA,1,1,NA,740,2,666.6666666666667,666.6666666666667,1600,2
5_casillas_tseltal_2015_27,26,xila,27,5,chair,distractor,34,62,0.3541666666666667,NA,1,0,NA,NA,1,566.6666666666667,566.6666666666667,1360,2
5_casillas_tseltal_2015_27,28,machit,27,5,machete,distractor,12,90,0.11764705882352941,NA,NA,0,NA,NA,0,NA,NA,NA,2
5_casillas_tseltal_2015_27,30,bojch,27,5,bowl-tseltal,distractor,20,74,0.2127659574468085,NA,1,1,NA,565,2,333.33333333333337,333.33333333333337,800,2
6_casillas_tseltal_2015_39,4,chojak',39,6,purse-tseltal,distractor,45,58,0.4368932038834951,NA,1,1,NA,615,2,750,750,1800,14
6_casillas_tseltal_2015_39,5,baso,39,6,cup,distractor,67,35,0.6568627450980392,NA,1,1,NA,540,2,1116.6666666666667,1116.6666666666667,2680,14
6_casillas_tseltal_2015_39,6,nichim,39,6,flower,distractor,93,11,0.8942307692307693,NA,1,1,NA,340,0,1550,1550,3720,14
6_casillas_tseltal_2015_39,10,mexa,39,6,table,distractor,82,22,0.7884615384615384,NA,1,1,NA,615,1,1366.6666666666667,1366.6666666666667,3280,14
6_casillas_tseltal_2015_39,11,xawin,39,6,cat,distractor,101,3,0.9711538461538461,NA,1,1,NA,140,0,1683.3333333333335,1683.3333333333335,4040,14
6_casillas_tseltal_2015_39,14,karo,39,6,car,distractor,87,18,0.8285714285714286,NA,1,1,NA,490,1,1450,1450,3480,14
6_casillas_tseltal_2015_39,16,te,39,6,tree,distractor,74,29,0.7184466019417476,NA,1,1,NA,815,1,1233.3333333333335,1233.3333333333335,2960,14
6_casillas_tseltal_2015_39,17,waybal,39,6,bed,distractor,77,29,0.7264150943396226,NA,1,1,NA,740,1,1283.3333333333335,1283.3333333333335,3080,14
6_casillas_tseltal_2015_39,18,t'inel,39,6,doorway,distractor,7,96,0.06796116504854369,NA,NA,0,NA,NA,0,NA,NA,NA,14
6_casillas_tseltal_2015_39,20,chenek',39,6,bean,distractor,69,35,0.6634615384615384,NA,1,1,NA,940,1,1150,1150,2760,14
6_casillas_tseltal_2015_39,22,tomut,39,6,egg,distractor,79,24,0.7669902912621359,NA,1,1,NA,690,1,1316.6666666666667,1316.6666666666667,3160,14
6_casillas_tseltal_2015_39,23,p'in,39,6,pot-tseltal,distractor,98,6,0.9423076923076923,NA,1,1,NA,215,0,1633.3333333333335,1633.3333333333335,3920,14
6_casillas_tseltal_2015_39,24,tzek',39,6,skirt-tseltal,distractor,79,26,0.7523809523809524,NA,1,1,NA,690,1,1316.6666666666667,1316.6666666666667,3160,14
6_casillas_tseltal_2015_39,25,ich,39,6,chile,distractor,101,3,0.9711538461538461,NA,1,1,NA,140,0,1683.3333333333335,1683.3333333333335,4040,14
6_casillas_tseltal_2015_39,28,machit,39,6,machete,distractor,24,80,0.23076923076923078,NA,1,0,NA,NA,1,400,400,960,14
6_casillas_tseltal_2015_39,29,si',39,6,firewood,distractor,72,32,0.6923076923076923,NA,1,1,NA,865,1,1200,1200,2880,14
6_casillas_tseltal_2015_39,30,bojch,39,6,bowl-tseltal,distractor,71,34,0.6761904761904762,NA,1,1,NA,890,1,1183.3333333333335,1183.3333333333335,2840,14
7_casillas_tseltal_2015_25,1,wa,25,7,tortilla,distractor,0,87,0,NA,NA,0,NA,NA,0,NA,NA,NA,0
7_casillas_tseltal_2015_25,2,moch,25,7,basket-tseltal,distractor,0,106,0,NA,NA,0,NA,NA,0,NA,NA,NA,0
7_casillas_tseltal_2015_25,3,pelota,25,7,ball,distractor,0,104,0,NA,NA,0,NA,NA,0,NA,NA,NA,0
7_casillas_tseltal_2015_25,4,chojak',25,7,purse-tseltal,distractor,0,106,0,NA,NA,0,NA,NA,0,NA,NA,NA,0
7_casillas_tseltal_2015_25,7,balti,25,7,bucket,distractor,0,106,0,NA,NA,0,NA,NA,0,NA,NA,NA,0
7_casillas_tseltal_2015_25,8,mut,25,7,chicken,distractor,56,48,0.5384615384615384,NA,1,1,NA,1265,1,933.3333333333334,933.3333333333334,2240,0
7_casillas_tseltal_2015_25,9,k'ajk',25,7,fire,distractor,0,106,0,NA,NA,0,NA,NA,0,NA,NA,NA,0
7_casillas_tseltal_2015_25,15,na,25,7,house,distractor,0,106,0,NA,NA,0,NA,NA,0,NA,NA,NA,0
7_casillas_tseltal_2015_25,16,te,25,7,tree,distractor,0,55,0,NA,NA,0,NA,NA,0,NA,NA,NA,0
7_casillas_tseltal_2015_25,20,chenek',25,7,bean,distractor,0,106,0,NA,NA,0,NA,NA,0,NA,NA,NA,0
7_casillas_tseltal_2015_25,22,tomut,25,7,egg,distractor,32,72,0.3076923076923077,NA,1,0,NA,NA,1,533.3333333333334,533.3333333333334,1280,0
7_casillas_tseltal_2015_25,27,mes,25,7,broom,distractor,0,106,0,NA,NA,0,NA,NA,0,NA,NA,NA,0
8_casillas_tseltal_2015_14,1,wa,14,8,tortilla,distractor,70,32,0.6862745098039216,NA,1,1,NA,815,1,1166.6666666666667,1166.6666666666667,2800,-11
8_casillas_tseltal_2015_14,8,mut,14,8,chicken,distractor,27,77,0.25961538461538464,NA,1,1,NA,1290,2,450.00000000000006,450.00000000000006,1080,-11
8_casillas_tseltal_2015_14,10,mexa,14,8,table,distractor,0,106,0,NA,NA,0,NA,NA,0,NA,NA,NA,-11
8_casillas_tseltal_2015_14,12,ja',14,8,water,distractor,57,47,0.5480769230769231,NA,1,1,NA,665,2,950.0000000000001,950.0000000000001,2280,-11
8_casillas_tseltal_2015_14,14,karo,14,8,car,distractor,0,106,0,NA,NA,0,NA,NA,0,NA,NA,NA,-11
8_casillas_tseltal_2015_14,15,na,14,8,house,distractor,16,87,0.1553398058252427,NA,1,1,NA,1065,2,266.6666666666667,266.6666666666667,640,-11
8_casillas_tseltal_2015_14,17,waybal,14,8,bed,distractor,26,72,0.2653061224489796,NA,1,0,NA,NA,1,433.33333333333337,433.33333333333337,1040,-11
8_casillas_tseltal_2015_14,18,t'inel,14,8,doorway,distractor,0,106,0,NA,NA,0,NA,NA,0,NA,NA,NA,-11
8_casillas_tseltal_2015_14,22,tomut,14,8,egg,distractor,24,78,0.23529411764705882,NA,1,1,NA,1015,2,400,400,960,-11
8_casillas_tseltal_2015_14,24,tzek',14,8,skirt-tseltal,distractor,0,106,0,NA,NA,0,NA,NA,0,NA,NA,NA,-11
8_casillas_tseltal_2015_14,25,ich,14,8,chile,distractor,47,52,0.47474747474747475,NA,1,1,NA,1090,2,750,750,1800,-11
8_casillas_tseltal_2015_14,26,xila,14,8,chair,distractor,0,106,0,NA,NA,0,NA,NA,0,NA,NA,NA,-11
8_casillas_tseltal_2015_14,28,machit,14,8,machete,distractor,0,106,0,NA,NA,0,NA,NA,0,NA,NA,NA,-11
8_casillas_tseltal_2015_14,29,si',14,8,firewood,distractor,12,86,0.12244897959183673,NA,1,0,NA,NA,1,200,200,480,-11
9_casillas_tseltal_2015_42,4,chojak',42,9,purse-tseltal,distractor,29,72,0.2871287128712871,NA,1,1,NA,415,2,483.33333333333337,483.33333333333337,1160,17
9_casillas_tseltal_2015_42,5,baso,42,9,cup,distractor,56,44,0.56,NA,1,1,NA,615,2,900.0000000000001,900.0000000000001,2160,17
9_casillas_tseltal_2015_42,7,balti,42,9,bucket,distractor,43,59,0.4215686274509804,NA,1,1,NA,615,2,716.6666666666667,716.6666666666667,1720,17
9_casillas_tseltal_2015_42,9,k'ajk',42,9,fire,distractor,68,30,0.6938775510204082,NA,2,1,NA,165,2,483.33333333333337,716.6666666666667,1720,17
9_casillas_tseltal_2015_42,10,mexa,42,9,table,distractor,72,25,0.7422680412371134,NA,1,1,NA,365,1,1066.6666666666667,1066.6666666666667,2560,17
9_casillas_tseltal_2015_42,12,ja',42,9,water,distractor,56,49,0.5333333333333333,NA,1,1,NA,565,2,933.3333333333334,933.3333333333334,2240,17
9_casillas_tseltal_2015_42,14,karo,42,9,car,distractor,85,19,0.8173076923076923,NA,1,1,NA,540,1,1416.6666666666667,1416.6666666666667,3400,17
9_casillas_tseltal_2015_42,15,na,42,9,house,distractor,25,71,0.2604166666666667,NA,1,1,NA,865,2,416.6666666666667,416.6666666666667,1000,17
9_casillas_tseltal_2015_42,18,t'inel,42,9,doorway,distractor,0,106,0,NA,NA,0,NA,NA,0,NA,NA,NA,17
9_casillas_tseltal_2015_42,20,chenek',42,9,bean,distractor,69,34,0.6699029126213593,NA,1,1,NA,365,2,1150,1150,2760,17
9_casillas_tseltal_2015_42,23,p'in,42,9,pot-tseltal,distractor,27,76,0.2621359223300971,NA,1,1,NA,465,2,450.00000000000006,450.00000000000006,1080,17
9_casillas_tseltal_2015_42,24,tzek',42,9,skirt-tseltal,distractor,71,34,0.6761904761904762,NA,1,1,NA,890,1,1183.3333333333335,1183.3333333333335,2840,17
9_casillas_tseltal_2015_42,28,machit,42,9,machete,distractor,92,13,0.8761904761904762,NA,1,1,NA,365,1,1533.3333333333335,1533.3333333333335,3680,17
10_casillas_tseltal_2015_46,4,chojak',46,10,purse-tseltal,distractor,93,10,0.9029126213592233,NA,1,1,NA,340,0,1550,1550,3720,21
10_casillas_tseltal_2015_46,5,baso,46,10,cup,distractor,103,0,1,NA,1,1,NA,90,0,1716.6666666666667,1716.6666666666667,4120,21
10_casillas_tseltal_2015_46,7,balti,46,10,bucket,distractor,84,21,0.8,NA,1,1,NA,565,1,1400,1400,3360,21
10_casillas_tseltal_2015_46,9,k'ajk',46,10,fire,distractor,93,10,0.9029126213592233,NA,1,1,NA,340,0,1550,1550,3720,21
10_casillas_tseltal_2015_46,10,mexa,46,10,table,distractor,95,10,0.9047619047619048,NA,1,1,NA,290,0,1583.3333333333335,1583.3333333333335,3800,21
10_casillas_tseltal_2015_46,11,xawin,46,10,cat,distractor,85,19,0.8173076923076923,NA,1,1,NA,540,1,1416.6666666666667,1416.6666666666667,3400,21
10_casillas_tseltal_2015_46,12,ja',46,10,water,distractor,61,42,0.5922330097087378,NA,1,1,NA,1140,1,1016.6666666666667,1016.6666666666667,2440,21
10_casillas_tseltal_2015_46,15,na,46,10,house,distractor,79,26,0.7523809523809524,NA,1,1,NA,690,1,1316.6666666666667,1316.6666666666667,3160,21
10_casillas_tseltal_2015_46,16,te,46,10,tree,distractor,85,18,0.8252427184466019,NA,1,1,NA,540,1,1416.6666666666667,1416.6666666666667,3400,21
10_casillas_tseltal_2015_46,20,chenek',46,10,bean,distractor,14,62,0.18421052631578946,NA,1,1,NA,1415,2,233.33333333333334,233.33333333333334,560,21
10_casillas_tseltal_2015_46,21,tz'i,46,10,dog,distractor,82,21,0.7961165048543689,NA,1,1,NA,615,1,1366.6666666666667,1366.6666666666667,3280,21
10_casillas_tseltal_2015_46,22,tomut,46,10,egg,distractor,47,56,0.4563106796116505,NA,1,0,NA,NA,1,783.3333333333334,783.3333333333334,1880,21
10_casillas_tseltal_2015_46,23,p'in,46,10,pot-tseltal,distractor,87,18,0.8285714285714286,NA,1,1,NA,490,1,1450,1450,3480,21
10_casillas_tseltal_2015_46,25,ich,46,10,chile,distractor,84,19,0.8155339805825242,NA,1,1,NA,565,1,1400,1400,3360,21
10_casillas_tseltal_2015_46,27,mes,46,10,broom,distractor,89,11,0.89,NA,1,1,NA,365,0,1400,1400,3360,21
10_casillas_tseltal_2015_46,30,bojch,46,10,bowl-tseltal,distractor,68,37,0.6476190476190476,NA,1,1,NA,965,1,1133.3333333333335,1133.3333333333335,2720,21
11_casillas_tseltal_2015_9,22,tomut,9,11,egg,distractor,4,87,0.04395604395604396,NA,NA,0,NA,NA,0,NA,NA,NA,-16
11_casillas_tseltal_2015_9,25,ich,9,11,chile,distractor,48,27,0.64,NA,1,0,NA,NA,1,800,800,1920,-16
11_casillas_tseltal_2015_9,26,xila,9,11,chair,distractor,63,29,0.6847826086956522,NA,2,1,NA,815,1,525,433.33333333333337,1480,-16
12_casillas_tseltal_2015_16,13,wa,16,12,tortilla,distractor,31,69,0.31,NA,1,1,NA,1090,2,516.6666666666667,516.6666666666667,1240,-9
12_casillas_tseltal_2015_16,15,pelota,16,12,ball,distractor,5,99,0.04807692307692308,NA,NA,0,NA,NA,0,NA,NA,NA,-9
12_casillas_tseltal_2015_16,19,balti,16,12,bucket,distractor,0,106,0,NA,NA,0,NA,NA,0,NA,NA,NA,-9
12_casillas_tseltal_2015_16,23,xawin,16,12,cat,distractor,53,51,0.5096153846153846,NA,1,1,NA,1340,1,883.3333333333334,883.3333333333334,2120,-9
12_casillas_tseltal_2015_16,28,na,16,12,house,distractor,52,42,0.5531914893617021,NA,1,1,NA,90,1,750,750,1800,-9
12_casillas_tseltal_2015_16,29,te,16,12,tree,distractor,56,0,1,NA,2,1,NA,90,0,466.6666666666667,400,1280,-9
12_casillas_tseltal_2015_16,33,tz'i,16,12,dog,distractor,0,106,0,NA,NA,0,NA,NA,0,NA,NA,NA,-9
12_casillas_tseltal_2015_16,35,p'in,16,12,pot-tseltal,distractor,0,106,0,NA,NA,0,NA,NA,0,NA,NA,NA,-9
12_casillas_tseltal_2015_16,39,machit,16,12,machete,distractor,0,106,0,NA,NA,0,NA,NA,0,NA,NA,NA,-9
13_casillas_tseltal_2015_48,10,baso,48,13,cup,distractor,61,41,0.5980392156862745,NA,1,1,NA,940,1,1016.6666666666667,1016.6666666666667,2440,23
13_casillas_tseltal_2015_48,17,ja',48,13,water,distractor,59,45,0.5673076923076923,NA,1,1,NA,15,1,983.3333333333334,983.3333333333334,2360,23
13_casillas_tseltal_2015_48,27,tomut,48,13,egg,distractor,88,15,0.8543689320388349,NA,1,1,NA,365,1,1466.6666666666667,1466.6666666666667,3520,23
13_casillas_tseltal_2015_48,29,tzek',48,13,skirt-tseltal,distractor,0,106,0,NA,NA,0,NA,NA,0,NA,NA,NA,23
13_casillas_tseltal_2015_48,30,ich,48,13,chile,distractor,0,103,0,NA,NA,0,NA,NA,0,NA,NA,NA,23
13_casillas_tseltal_2015_48,32,machit,48,13,machete,distractor,69,35,0.6634615384615384,NA,1,1,NA,540,1,1050,1050,2520,23
14_casillas_tseltal_2015_29,1,lo'bal,29,14,banana,distractor,45,56,0.44554455445544555,NA,1,1,NA,290,1,583.3333333333334,583.3333333333334,1400,4
14_casillas_tseltal_2015_29,13,wa,29,14,tortilla,distractor,21,71,0.22826086956521738,NA,1,1,NA,540,2,266.6666666666667,266.6666666666667,640,4
14_casillas_tseltal_2015_29,17,baso,29,14,cup,distractor,80,24,0.7692307692307693,NA,1,1,NA,665,1,1333.3333333333335,1333.3333333333335,3200,4
14_casillas_tseltal_2015_29,24,ja',29,14,water,distractor,97,5,0.9509803921568627,NA,1,1,NA,65,0,1616.6666666666667,1616.6666666666667,3880,4
14_casillas_tseltal_2015_29,27,bojch,29,14,bowl-tseltal,distractor,29,70,0.29292929292929293,NA,1,1,NA,490,2,450.00000000000006,450.00000000000006,1080,4
14_casillas_tseltal_2015_29,28,na,29,14,house,distractor,46,56,0.45098039215686275,NA,1,1,NA,465,2,766.6666666666667,766.6666666666667,1840,4
14_casillas_tseltal_2015_29,29,te,29,14,tree,distractor,88,16,0.8461538461538461,NA,1,1,NA,465,1,1466.6666666666667,1466.6666666666667,3520,4
14_casillas_tseltal_2015_29,33,tz'i,29,14,dog,distractor,77,22,0.7777777777777778,NA,2,1,NA,165,2,641.6666666666667,1016.6666666666667,2440,4
14_casillas_tseltal_2015_29,35,p'in,29,14,pot-tseltal,distractor,18,85,0.17475728155339806,NA,1,1,NA,815,2,300,300,720,4
14_casillas_tseltal_2015_29,36,tzek',29,14,skirt-tseltal,distractor,67,36,0.6504854368932039,NA,1,1,NA,665,2,1116.6666666666667,1116.6666666666667,2680,4
14_casillas_tseltal_2015_29,37,ich,29,14,chile,distractor,69,34,0.6699029126213593,NA,1,1,NA,340,1,1150,1150,2760,4
14_casillas_tseltal_2015_29,38,mes,29,14,broom,distractor,93,2,0.9789473684210527,NA,1,1,NA,340,0,1550,1550,3720,4
15_casillas_tseltal_2015_39,13,wa,39,15,tortilla,distractor,16,87,0.1553398058252427,NA,1,1,NA,465,2,266.6666666666667,266.6666666666667,640,14
15_casillas_tseltal_2015_39,15,pelota,39,15,ball,distractor,0,106,0,NA,NA,0,NA,NA,0,NA,NA,NA,14
15_casillas_tseltal_2015_39,16,chojak',39,15,purse-tseltal,distractor,73,28,0.7227722772277227,NA,1,1,NA,265,1,1216.6666666666667,1216.6666666666667,2920,14
15_casillas_tseltal_2015_39,19,balti,39,15,bucket,distractor,65,32,0.6701030927835051,NA,1,1,NA,365,1,1000.0000000000001,1000.0000000000001,2400,14
15_casillas_tseltal_2015_39,20,mut,39,15,chicken,distractor,57,43,0.57,NA,2,1,NA,615,3,475,300,1560,14
15_casillas_tseltal_2015_39,21,k'ajk',39,15,fire,distractor,44,58,0.43137254901960786,NA,2,1,NA,65,1,366.6666666666667,500.00000000000006,1200,14
15_casillas_tseltal_2015_39,22,mexa,39,15,table,distractor,30,72,0.29411764705882354,NA,1,0,NA,NA,1,500.00000000000006,500.00000000000006,1200,14
15_casillas_tseltal_2015_39,24,ja',39,15,water,distractor,36,55,0.3956043956043956,NA,1,1,NA,65,1,600,600,1440,14
15_casillas_tseltal_2015_39,27,bojch,39,15,bowl-tseltal,distractor,92,13,0.8761904761904762,NA,1,1,NA,365,1,1533.3333333333335,1533.3333333333335,3680,14
15_casillas_tseltal_2015_39,28,na,39,15,house,distractor,96,6,0.9411764705882353,NA,1,1,NA,265,0,1600,1600,3840,14
15_casillas_tseltal_2015_39,29,te,39,15,tree,distractor,64,34,0.6530612244897959,NA,1,1,NA,215,1,1066.6666666666667,1066.6666666666667,2560,14
15_casillas_tseltal_2015_39,31,t'inel,39,15,doorway,distractor,31,67,0.3163265306122449,NA,1,1,NA,140,1,366.6666666666667,366.6666666666667,880,14
15_casillas_tseltal_2015_39,34,tomut,39,15,egg,distractor,73,29,0.7156862745098039,NA,1,1,NA,265,1,1216.6666666666667,1216.6666666666667,2920,14
15_casillas_tseltal_2015_39,35,p'in,39,15,pot-tseltal,distractor,95,10,0.9047619047619048,NA,1,1,NA,290,0,1583.3333333333335,1583.3333333333335,3800,14
15_casillas_tseltal_2015_39,36,tzek',39,15,skirt-tseltal,distractor,5,78,0.060240963855421686,NA,NA,0,NA,NA,0,NA,NA,NA,14
15_casillas_tseltal_2015_39,38,mes,39,15,broom,distractor,79,26,0.7523809523809524,NA,1,1,NA,90,1,1316.6666666666667,1316.6666666666667,3160,14
15_casillas_tseltal_2015_39,39,machit,39,15,machete,distractor,63,37,0.63,NA,1,1,NA,490,2,1016.6666666666667,1016.6666666666667,2440,14
16_casillas_tseltal_2015_41,13,wa,41,16,tortilla,distractor,0,106,0,NA,NA,0,NA,NA,0,NA,NA,NA,16
16_casillas_tseltal_2015_41,14,moch,41,16,basket-tseltal,distractor,84,21,0.8,NA,1,1,NA,565,1,1400,1400,3360,16
16_casillas_tseltal_2015_41,20,mut,41,16,chicken,distractor,45,58,0.4368932038834951,NA,1,1,NA,90,1,750,750,1800,16
16_casillas_tseltal_2015_41,24,ja',41,16,water,distractor,60,45,0.5714285714285714,NA,1,1,NA,1165,1,1000.0000000000001,1000.0000000000001,2400,16
16_casillas_tseltal_2015_41,29,te,41,16,tree,distractor,76,29,0.7238095238095238,NA,1,1,NA,765,1,1266.6666666666667,1266.6666666666667,3040,16
16_casillas_tseltal_2015_41,31,t'inel,41,16,doorway,distractor,69,29,0.7040816326530612,NA,2,1,NA,340,2,575,583.3333333333334,1400,16
16_casillas_tseltal_2015_41,34,tomut,41,16,egg,distractor,80,24,0.7692307692307693,NA,1,1,NA,665,1,1333.3333333333335,1333.3333333333335,3200,16
16_casillas_tseltal_2015_41,36,tzek',41,16,skirt-tseltal,distractor,26,77,0.2524271844660194,NA,1,0,NA,NA,1,433.33333333333337,433.33333333333337,1040,16
16_casillas_tseltal_2015_41,39,machit,41,16,machete,distractor,92,10,0.9019607843137255,NA,2,1,NA,290,0,766.6666666666667,700,2000,16
17_casillas_tseltal_2015_32,15,pelota,32,17,ball,distractor,18,87,0.17142857142857143,NA,NA,1,NA,265,0,NA,NA,NA,7
17_casillas_tseltal_2015_32,16,chojak',32,17,purse-tseltal,distractor,82,22,0.7884615384615384,NA,1,1,NA,615,1,1366.6666666666667,1366.6666666666667,3280,7
17_casillas_tseltal_2015_32,17,baso,32,17,cup,distractor,60,45,0.5714285714285714,NA,1,1,NA,1165,1,1000.0000000000001,1000.0000000000001,2400,7
17_casillas_tseltal_2015_32,22,mexa,32,17,table,distractor,0,98,0,NA,NA,0,NA,NA,0,NA,NA,NA,7
17_casillas_tseltal_2015_32,28,na,32,17,house,distractor,85,21,0.8018867924528302,NA,1,1,NA,540,1,1416.6666666666667,1416.6666666666667,3400,7
17_casillas_tseltal_2015_32,29,te,32,17,tree,distractor,74,28,0.7254901960784313,NA,2,1,NA,415,3,616.6666666666667,350,2120,7
17_casillas_tseltal_2015_32,30,waybal,32,17,bed,distractor,75,30,0.7142857142857143,NA,1,1,NA,465,2,1250,1250,3000,7
17_casillas_tseltal_2015_32,32,chenek',32,17,bean,distractor,0,106,0,NA,NA,0,NA,NA,0,NA,NA,NA,7
17_casillas_tseltal_2015_32,33,tz'i,32,17,dog,distractor,84,16,0.84,NA,1,1,NA,415,1,1400,966.6666666666667,3360,7
17_casillas_tseltal_2015_32,38,mes,32,17,broom,distractor,80,24,0.7692307692307693,NA,1,1,NA,665,1,1333.3333333333335,1333.3333333333335,3200,7
17_casillas_tseltal_2015_32,39,machit,32,17,machete,distractor,61,42,0.5922330097087378,NA,1,1,NA,540,2,1016.6666666666667,1016.6666666666667,2440,7
18_casillas_tseltal_2015_32,13,wa,32,18,tortilla,distractor,42,58,0.42,NA,1,1,NA,415,2,700,700,1680,7
18_casillas_tseltal_2015_32,14,moch,32,18,basket-tseltal,distractor,77,23,0.77,NA,1,1,NA,415,1,1283.3333333333335,1283.3333333333335,3080,7
18_casillas_tseltal_2015_32,15,pelota,32,18,ball,distractor,52,48,0.52,NA,1,1,NA,1365,1,866.6666666666667,866.6666666666667,2080,7
18_casillas_tseltal_2015_32,17,baso,32,18,cup,distractor,100,5,0.9523809523809523,NA,1,1,NA,165,0,1666.6666666666667,1666.6666666666667,4000,7
18_casillas_tseltal_2015_32,20,mut,32,18,chicken,distractor,38,61,0.3838383838383838,NA,1,0,NA,NA,1,633.3333333333334,633.3333333333334,1520,7
18_casillas_tseltal_2015_32,21,k'ajk',32,18,fire,distractor,80,22,0.7843137254901961,NA,1,1,NA,665,1,1333.3333333333335,1333.3333333333335,3200,7
18_casillas_tseltal_2015_32,23,xawin,32,18,cat,distractor,74,26,0.74,NA,2,1,NA,215,2,616.6666666666667,833.3333333333334,2000,7
18_casillas_tseltal_2015_32,29,te,32,18,tree,distractor,38,61,0.3838383838383838,NA,1,1,NA,865,2,633.3333333333334,633.3333333333334,1520,7
18_casillas_tseltal_2015_32,32,chenek',32,18,bean,distractor,0,106,0,NA,NA,0,NA,NA,0,NA,NA,NA,7
18_casillas_tseltal_2015_32,33,tz'i,32,18,dog,distractor,32,68,0.32,NA,1,1,NA,1015,2,400,400,960,7
18_casillas_tseltal_2015_32,34,tomut,32,18,egg,distractor,39,62,0.38613861386138615,NA,1,0,NA,NA,1,650,650,1560,7
18_casillas_tseltal_2015_32,35,p'in,32,18,pot-tseltal,distractor,0,84,0,NA,NA,0,NA,NA,0,NA,NA,NA,7
18_casillas_tseltal_2015_32,36,tzek',32,18,skirt-tseltal,distractor,30,59,0.33707865168539325,NA,1,0,NA,NA,1,500.00000000000006,500.00000000000006,1200,7
18_casillas_tseltal_2015_32,37,ich,32,18,chile,distractor,72,31,0.6990291262135923,NA,1,1,NA,65,1,1200,1200,2880,7
18_casillas_tseltal_2015_32,39,machit,32,18,machete,distractor,73,27,0.73,NA,1,1,NA,490,1,1183.3333333333335,1183.3333333333335,2840,7
18_casillas_tseltal_2015_32,40,si',32,18,firewood,distractor,64,25,0.7191011235955056,NA,1,1,NA,65,1,900.0000000000001,900.0000000000001,2160,7
19_casillas_tseltal_2015_35,1,lo'bal,35,19,banana,distractor,84,19,0.8155339805825242,NA,1,1,NA,565,1,1400,1400,3360,10
19_casillas_tseltal_2015_35,13,wa,35,19,tortilla,distractor,0,95,0,NA,NA,0,NA,NA,0,NA,NA,NA,10
19_casillas_tseltal_2015_35,14,moch,35,19,basket-tseltal,distractor,0,106,0,NA,NA,0,NA,NA,0,NA,NA,NA,10
19_casillas_tseltal_2015_35,15,pelota,35,19,ball,distractor,0,106,0,NA,NA,0,NA,NA,0,NA,NA,NA,10
19_casillas_tseltal_2015_35,16,chojak',35,19,purse-tseltal,distractor,63,40,0.6116504854368932,NA,1,1,NA,1090,1,1050,1050,2520,10
19_casillas_tseltal_2015_35,18,nichim,35,19,flower,distractor,0,106,0,NA,NA,0,NA,NA,0,NA,NA,NA,10
19_casillas_tseltal_2015_35,19,balti,35,19,bucket,distractor,0,106,0,NA,NA,0,NA,NA,0,NA,NA,NA,10
19_casillas_tseltal_2015_35,21,k'ajk',35,19,fire,distractor,85,19,0.8173076923076923,NA,1,1,NA,540,1,1416.6666666666667,1416.6666666666667,3400,10
19_casillas_tseltal_2015_35,22,mexa,35,19,table,distractor,87,19,0.8207547169811321,NA,1,1,NA,490,1,1450,1450,3480,10
19_casillas_tseltal_2015_35,23,xawin,35,19,cat,distractor,76,29,0.7238095238095238,NA,1,1,NA,765,1,1266.6666666666667,1266.6666666666667,3040,10
19_casillas_tseltal_2015_35,34,tomut,35,19,egg,distractor,0,106,0,NA,NA,0,NA,NA,0,NA,NA,NA,10
19_casillas_tseltal_2015_35,38,mes,35,19,broom,distractor,59,44,0.5728155339805825,NA,1,1,NA,465,2,983.3333333333334,983.3333333333334,2360,10
20_casillas_tseltal_2015_36,8,xila,36,20,chair,distractor,35,67,0.3431372549019608,NA,1,1,NA,1215,2,583.3333333333334,583.3333333333334,1400,11
20_casillas_tseltal_2015_36,13,wa,36,20,tortilla,distractor,8,94,0.0784313725490196,NA,NA,1,NA,615,0,NA,NA,NA,11
20_casillas_tseltal_2015_36,14,moch,36,20,basket-tseltal,distractor,88,16,0.8461538461538461,NA,1,1,NA,465,1,1466.6666666666667,1466.6666666666667,3520,11
20_casillas_tseltal_2015_36,15,pelota,36,20,ball,distractor,50,53,0.4854368932038835,NA,1,1,NA,1415,1,833.3333333333334,833.3333333333334,2000,11
20_casillas_tseltal_2015_36,16,chojak',36,20,purse-tseltal,distractor,92,13,0.8761904761904762,NA,1,1,NA,365,1,1533.3333333333335,1533.3333333333335,3680,11
20_casillas_tseltal_2015_36,17,baso,36,20,cup,distractor,59,43,0.5784313725490197,NA,1,1,NA,940,1,983.3333333333334,983.3333333333334,2360,11
20_casillas_tseltal_2015_36,23,xawin,36,20,cat,distractor,29,73,0.28431372549019607,NA,1,1,NA,340,1,483.33333333333337,483.33333333333337,1160,11
20_casillas_tseltal_2015_36,26,karo,36,20,car,distractor,95,8,0.9223300970873787,NA,1,1,NA,290,0,1583.3333333333335,1583.3333333333335,3800,11
20_casillas_tseltal_2015_36,29,te,36,20,tree,distractor,63,40,0.6116504854368932,NA,1,1,NA,1090,1,1050,1050,2520,11
20_casillas_tseltal_2015_36,31,t'inel,36,20,doorway,distractor,24,79,0.23300970873786409,NA,1,1,NA,340,1,400,400,960,11
20_casillas_tseltal_2015_36,32,chenek',36,20,bean,distractor,46,54,0.46,NA,1,1,NA,865,2,766.6666666666667,766.6666666666667,1840,11
20_casillas_tseltal_2015_36,33,tz'i,36,20,dog,distractor,88,16,0.8461538461538461,NA,1,1,NA,465,1,1466.6666666666667,1466.6666666666667,3520,11
20_casillas_tseltal_2015_36,36,tzek',36,20,skirt-tseltal,distractor,82,22,0.7884615384615384,NA,1,1,NA,615,1,1366.6666666666667,1366.6666666666667,3280,11
20_casillas_tseltal_2015_36,37,ich,36,20,chile,distractor,54,42,0.5625,NA,1,1,NA,265,1,900.0000000000001,900.0000000000001,2160,11
20_casillas_tseltal_2015_36,39,machit,36,20,machete,distractor,35,68,0.33980582524271846,NA,1,1,NA,665,2,583.3333333333334,583.3333333333334,1400,11
21_casillas_tseltal_2015_26,8,xila,26,21,chair,distractor,0,103,0,NA,NA,0,NA,NA,0,NA,NA,NA,1
21_casillas_tseltal_2015_26,17,baso,26,21,cup,distractor,0,103,0,NA,NA,0,NA,NA,0,NA,NA,NA,1
21_casillas_tseltal_2015_26,22,mexa,26,21,table,distractor,0,106,0,NA,NA,0,NA,NA,0,NA,NA,NA,1
21_casillas_tseltal_2015_26,26,karo,26,21,car,distractor,61,43,0.5865384615384616,NA,1,1,NA,1140,1,1016.6666666666667,1016.6666666666667,2440,1
21_casillas_tseltal_2015_26,31,t'inel,26,21,doorway,distractor,69,35,0.6634615384615384,NA,1,1,NA,940,1,1150,1150,2760,1
21_casillas_tseltal_2015_26,32,chenek',26,21,bean,distractor,0,106,0,NA,NA,0,NA,NA,0,NA,NA,NA,1
21_casillas_tseltal_2015_26,33,tz'i,26,21,dog,distractor,70,34,0.6730769230769231,NA,1,1,NA,365,2,1133.3333333333335,1133.3333333333335,2720,1
21_casillas_tseltal_2015_26,35,p'in,26,21,pot-tseltal,distractor,0,106,0,NA,NA,0,NA,NA,0,NA,NA,NA,1
21_casillas_tseltal_2015_26,36,tzek',26,21,skirt-tseltal,distractor,0,106,0,NA,NA,0,NA,NA,0,NA,NA,NA,1
21_casillas_tseltal_2015_26,37,ich,26,21,chile,distractor,0,100,0,NA,NA,0,NA,NA,0,NA,NA,NA,1
21_casillas_tseltal_2015_26,39,machit,26,21,machete,distractor,0,106,0,NA,NA,0,NA,NA,0,NA,NA,NA,1
21_casillas_tseltal_2015_26,40,si',26,21,firewood,distractor,0,106,0,NA,NA,0,NA,NA,0,NA,NA,NA,1
22_casillas_tseltal_2015_36,8,xila,36,22,chair,distractor,0,106,0,NA,NA,0,NA,NA,0,NA,NA,NA,11
22_casillas_tseltal_2015_36,13,wa,36,22,tortilla,distractor,20,82,0.19607843137254902,NA,1,1,NA,465,2,333.33333333333337,333.33333333333337,800,11
22_casillas_tseltal_2015_36,15,pelota,36,22,ball,distractor,19,83,0.18627450980392157,NA,1,1,NA,140,1,316.6666666666667,316.6666666666667,760,11
22_casillas_tseltal_2015_36,20,mut,36,22,chicken,distractor,34,70,0.3269230769230769,NA,1,0,NA,NA,1,566.6666666666667,566.6666666666667,1360,11
22_casillas_tseltal_2015_36,28,na,36,22,house,distractor,55,50,0.5238095238095238,NA,1,1,NA,1290,1,916.6666666666667,916.6666666666667,2200,11
22_casillas_tseltal_2015_36,30,waybal,36,22,bed,distractor,0,106,0,NA,NA,0,NA,NA,0,NA,NA,NA,11
22_casillas_tseltal_2015_36,31,t'inel,36,22,doorway,distractor,0,101,0,NA,NA,0,NA,NA,0,NA,NA,NA,11
22_casillas_tseltal_2015_36,32,chenek',36,22,bean,distractor,63,42,0.6,NA,1,1,NA,1090,1,1050,1050,2520,11
22_casillas_tseltal_2015_36,33,tz'i,36,22,dog,distractor,79,26,0.7523809523809524,NA,1,1,NA,690,1,1316.6666666666667,1316.6666666666667,3160,11
22_casillas_tseltal_2015_36,36,tzek',36,22,skirt-tseltal,distractor,0,106,0,NA,NA,0,NA,NA,0,NA,NA,NA,11
22_casillas_tseltal_2015_36,37,ich,36,22,chile,distractor,2,102,0.019230769230769232,NA,NA,0,NA,NA,0,NA,NA,NA,11
22_casillas_tseltal_2015_36,40,si',36,22,firewood,distractor,40,64,0.38461538461538464,NA,1,0,NA,NA,1,666.6666666666667,666.6666666666667,1600,11
23_ronfard_2021_22,3,car,22,23,car,distractor,47,7,0.8703703703703703,0.4597701149425287,1,1,NA,290,0,783.3333333333334,783.3333333333334,1566.6666666666667,-3
23_ronfard_2021_22,7,shoe,22,23,shoe,distractor,33,23,0.5892857142857143,0.4568965517241379,1,1,NA,640,1,550,550,1100,-3
23_ronfard_2021_22,8,cat,22,23,cat,distractor,22,32,0.4074074074074074,0.12068965517241378,1,1,NA,915,1,366.6666666666667,366.6666666666667,733.3333333333334,-3
23_ronfard_2021_22,15,birdie,22,23,birdie,distractor,34,21,0.6181818181818182,NA,1,1,NA,615,1,566.6666666666667,566.6666666666667,1133.3333333333335,-3
23_ronfard_2021_22,16,ball,22,23,ball,distractor,27,28,0.4909090909090909,-0.12931034482758624,1,1,NA,790,1,450.00000000000006,450.00000000000006,900.0000000000001,-3
23_ronfard_2021_22,17,car,22,23,car,distractor,43,12,0.7818181818181819,0.4597701149425287,1,1,NA,390,1,716.6666666666667,716.6666666666667,1433.3333333333335,-3
23_ronfard_2021_22,22,book,22,23,book,distractor,0,58,0,-0.09482758620689657,NA,0,NA,NA,0,NA,NA,NA,-3
23_ronfard_2021_22,26,car,22,23,car,distractor,35,20,0.6363636363636364,0.4597701149425287,1,1,NA,590,1,583.3333333333334,583.3333333333334,1166.6666666666667,-3
23_ronfard_2021_22,27,shoe,22,23,shoe,distractor,46,7,0.8679245283018868,0.4568965517241379,1,1,NA,315,1,766.6666666666667,766.6666666666667,1533.3333333333335,-3
23_ronfard_2021_22,30,dog,22,23,dog,distractor,51,4,0.9272727272727272,0.10344827586206895,1,1,NA,190,0,850.0000000000001,850.0000000000001,1700.0000000000002,-3
23_ronfard_2021_22,37,birdie,22,23,birdie,distractor,27,24,0.5294117647058824,NA,1,1,NA,440,2,450.00000000000006,450.00000000000006,900.0000000000001,-3
23_ronfard_2021_22,54,cat,22,23,cat,distractor,0,58,0,0.12068965517241378,NA,0,NA,NA,0,NA,NA,NA,-3
23_ronfard_2021_22,65,book,22,23,book,distractor,45,11,0.8035714285714286,-0.09482758620689657,1,1,NA,340,1,750,750,1500,-3
24_ronfard_2021_19,1,dog,19,24,dog,distractor,2,52,0.037037037037037035,-0.2413793103448275,NA,1,NA,1415,0,NA,NA,NA,-6
24_ronfard_2021_19,3,car,19,24,car,distractor,51,4,0.9272727272727272,0.4482758620689655,1,1,NA,190,0,850.0000000000001,850.0000000000001,1700.0000000000002,-6
24_ronfard_2021_19,4,book,19,24,book,distractor,22,33,0.4,0.12068965517241376,1,1,NA,915,1,366.6666666666667,366.6666666666667,733.3333333333334,-6
24_ronfard_2021_19,8,cat,19,24,cat,distractor,11,44,0.2,-0.20689655172413793,NA,1,NA,1190,0,NA,NA,NA,-6
24_ronfard_2021_19,15,birdie,19,24,birdie,distractor,38,17,0.6909090909090909,NA,1,1,NA,40,1,633.3333333333334,633.3333333333334,1266.6666666666667,-6
24_ronfard_2021_19,27,shoe,19,24,shoe,distractor,30,25,0.5454545454545454,0.4482758620689655,1,1,NA,715,1,500.00000000000006,500.00000000000006,1000.0000000000001,-6
24_ronfard_2021_19,30,dog,19,24,dog,distractor,49,5,0.9074074074074074,-0.2413793103448275,1,1,NA,240,0,816.6666666666667,816.6666666666667,1633.3333333333335,-6
24_ronfard_2021_19,32,ball,19,24,ball,distractor,41,15,0.7321428571428571,0.13793103448275856,1,1,NA,440,1,683.3333333333334,683.3333333333334,1366.6666666666667,-6
24_ronfard_2021_19,39,dog,19,24,dog,distractor,49,7,0.875,-0.2413793103448275,1,1,NA,240,0,816.6666666666667,816.6666666666667,1633.3333333333335,-6
24_ronfard_2021_19,41,birdie,19,24,birdie,distractor,18,34,0.34615384615384615,NA,1,1,NA,390,2,300,300,600,-6
24_ronfard_2021_19,49,cat,19,24,cat,distractor,0,58,0,-0.20689655172413793,NA,0,NA,NA,0,NA,NA,NA,-6
24_ronfard_2021_19,60,dog,19,24,dog,distractor,48,6,0.8888888888888888,-0.2413793103448275,1,1,NA,40,0,800,800,1600,-6
25_ronfard_2021_20,7,book,20,25,book,distractor,51,2,0.9622641509433962,-0.12068965517241381,1,1,NA,115,0,850.0000000000001,850.0000000000001,1700.0000000000002,-5
25_ronfard_2021_20,10,shoe,20,25,shoe,distractor,0,52,0,0.008620689655172414,NA,0,NA,NA,0,NA,NA,NA,-5
25_ronfard_2021_20,14,cat,20,25,cat,distractor,45,11,0.8035714285714286,0.27586206896551724,1,1,NA,340,1,750,750,1500,-5
25_ronfard_2021_20,22,birdie,20,25,birdie,distractor,20,33,0.37735849056603776,0.1724137931034483,1,1,NA,390,2,333.33333333333337,333.33333333333337,666.6666666666667,-5
25_ronfard_2021_20,32,dog,20,25,dog,distractor,25,29,0.46296296296296297,0.24137931034482757,1,1,NA,840,1,416.6666666666667,416.6666666666667,833.3333333333334,-5
25_ronfard_2021_20,35,car,20,25,car,distractor,52,0,1,-0.025862068965517238,1,1,NA,15,0,750,750,1500,-5
25_ronfard_2021_20,36,shoe,20,25,shoe,distractor,1,55,0.017857142857142856,0.008620689655172414,NA,1,NA,1440,0,NA,NA,NA,-5
25_ronfard_2021_20,41,ball,20,25,ball,distractor,0,58,0,-0.034482758620689655,NA,0,NA,NA,0,NA,NA,NA,-5
25_ronfard_2021_20,48,ball,20,25,ball,distractor,0,58,0,-0.034482758620689655,NA,0,NA,NA,0,NA,NA,NA,-5
25_ronfard_2021_20,53,baby,20,25,baby,distractor,37,10,0.7872340425531915,0.06896551724137934,1,1,NA,190,0,616.6666666666667,616.6666666666667,1233.3333333333335,-5
26_ronfard_2021_19,1,baby,19,26,baby,distractor,27,27,0.5,NA,1,1,NA,790,1,450.00000000000006,450.00000000000006,900.0000000000001,-6
26_ronfard_2021_19,6,shoe,19,26,shoe,distractor,26,22,0.5416666666666666,0.39655172413793105,1,1,NA,815,1,433.33333333333337,433.33333333333337,866.6666666666667,-6
26_ronfard_2021_19,7,book,19,26,book,distractor,38,16,0.7037037037037037,NA,1,1,NA,515,1,633.3333333333334,633.3333333333334,1266.6666666666667,-6
26_ronfard_2021_19,15,baby,19,26,baby,distractor,53,3,0.9464285714285714,NA,1,1,NA,140,0,883.3333333333334,883.3333333333334,1766.6666666666667,-6
26_ronfard_2021_19,25,car,19,26,car,distractor,51,3,0.9444444444444444,0.5,1,1,NA,190,0,850.0000000000001,850.0000000000001,1700.0000000000002,-6
27_ronfard_2021_19,17,cat,19,27,cat,distractor,34,20,0.6296296296296297,0.18965517241379304,1,1,NA,615,1,566.6666666666667,566.6666666666667,1133.3333333333335,-6
27_ronfard_2021_19,20,birdie,19,27,birdie,distractor,33,23,0.5892857142857143,-0.06896551724137934,1,1,NA,640,1,550,550,1100,-6
27_ronfard_2021_19,28,birdie,19,27,birdie,distractor,42,13,0.7636363636363637,-0.06896551724137934,1,1,NA,415,1,700,700,1400,-6
27_ronfard_2021_19,32,birdie,19,27,birdie,distractor,39,11,0.78,-0.06896551724137934,1,1,NA,340,1,650,650,1300,-6
27_ronfard_2021_19,37,dog,19,27,dog,distractor,31,23,0.5740740740740741,0.18965517241379304,1,1,NA,690,1,516.6666666666667,516.6666666666667,1033.3333333333335,-6
27_ronfard_2021_19,51,baby,19,27,baby,distractor,9,42,0.17647058823529413,-0.11494252873563218,NA,1,NA,215,0,NA,NA,NA,-6
27_ronfard_2021_19,56,ball,19,27,ball,distractor,26,29,0.4727272727272727,NA,1,1,NA,815,1,433.33333333333337,433.33333333333337,866.6666666666667,-6
27_ronfard_2021_19,60,car,19,27,car,distractor,31,24,0.5636363636363636,NA,1,1,NA,690,1,516.6666666666667,516.6666666666667,1033.3333333333335,-6
28_ronfard_2021_18,1,dog,18,28,dog,distractor,0,58,0,-0.12068965517241378,NA,0,NA,NA,0,NA,NA,NA,-7
28_ronfard_2021_18,8,cat,18,28,cat,distractor,31,21,0.5961538461538461,-0.1293103448275863,1,1,NA,690,1,516.6666666666667,516.6666666666667,1033.3333333333335,-7
28_ronfard_2021_18,15,birdie,18,28,birdie,distractor,58,0,1,NA,1,1,NA,15,0,966.6666666666667,966.6666666666667,1933.3333333333335,-7
28_ronfard_2021_18,16,ball,18,28,ball,distractor,13,43,0.23214285714285715,NA,1,1,NA,1140,1,216.66666666666669,216.66666666666669,433.33333333333337,-7
28_ronfard_2021_18,17,car,18,28,car,distractor,0,32,0,-0.5086206896551724,NA,0,NA,NA,0,NA,NA,NA,-7
28_ronfard_2021_18,27,shoe,18,28,shoe,distractor,23,32,0.41818181818181815,-0.14655172413793105,1,1,NA,890,1,383.33333333333337,383.33333333333337,766.6666666666667,-7
28_ronfard_2021_18,30,dog,18,28,dog,distractor,25,25,0.5,-0.12068965517241378,1,1,NA,215,1,416.6666666666667,416.6666666666667,833.3333333333334,-7
28_ronfard_2021_18,37,birdie,18,28,birdie,distractor,0,58,0,NA,NA,0,NA,NA,0,NA,NA,NA,-7
28_ronfard_2021_18,39,dog,18,28,dog,distractor,0,58,0,-0.12068965517241378,NA,0,NA,NA,0,NA,NA,NA,-7
28_ronfard_2021_18,45,birdie,18,28,birdie,distractor,54,0,1,NA,1,1,NA,115,0,900.0000000000001,900.0000000000001,1800.0000000000002,-7
28_ronfard_2021_18,60,dog,18,28,dog,distractor,31,13,0.7045454545454546,-0.12068965517241378,1,1,NA,690,1,516.6666666666667,516.6666666666667,1033.3333333333335,-7
28_ronfard_2021_18,63,shoe,18,28,shoe,distractor,24,27,0.47058823529411764,-0.14655172413793105,1,1,NA,615,1,400,400,800,-7
29_ronfard_2021_22,1,shoe,22,29,shoe,distractor,30,25,0.5454545454545454,-0.2413793103448275,1,1,NA,715,1,500.00000000000006,500.00000000000006,1000.0000000000001,-3
29_ronfard_2021_22,2,book,22,29,book,distractor,43,12,0.7818181818181819,0.15517241379310354,1,1,NA,390,1,716.6666666666667,716.6666666666667,1433.3333333333335,-3
29_ronfard_2021_22,9,cat,22,29,cat,distractor,23,32,0.41818181818181815,NA,1,1,NA,890,1,383.33333333333337,383.33333333333337,766.6666666666667,-3
29_ronfard_2021_22,14,cat,22,29,cat,distractor,41,13,0.7592592592592593,NA,1,1,NA,440,1,683.3333333333334,683.3333333333334,1366.6666666666667,-3
29_ronfard_2021_22,25,birdie,22,29,birdie,distractor,45,11,0.8035714285714286,NA,1,1,NA,340,1,750,750,1500,-3
29_ronfard_2021_22,30,car,22,29,car,distractor,11,44,0.2,-0.24137931034482757,NA,1,NA,1190,0,NA,NA,NA,-3
29_ronfard_2021_22,43,ball,22,29,ball,distractor,0,34,0,-0.20689655172413793,NA,0,NA,NA,0,NA,NA,NA,-3
30_ronfard_2021_23,22,birdie,23,30,birdie,distractor,38,16,0.7037037037037037,NA,1,1,NA,515,1,633.3333333333334,633.3333333333334,1266.6666666666667,-2
30_ronfard_2021_23,29,ball,23,30,ball,distractor,9,43,0.17307692307692307,NA,NA,1,NA,1240,0,NA,NA,NA,-2
30_ronfard_2021_23,30,birdie,23,30,birdie,distractor,35,13,0.7291666666666666,NA,1,1,NA,515,1,583.3333333333334,583.3333333333334,1166.6666666666667,-2
30_ronfard_2021_23,41,ball,23,30,ball,distractor,24,29,0.4528301886792453,NA,1,1,NA,540,2,400,400,800,-2
30_ronfard_2021_23,57,birdie,23,30,birdie,distractor,53,1,0.9814814814814815,NA,1,1,NA,140,0,883.3333333333334,883.3333333333334,1766.6666666666667,-2
30_ronfard_2021_23,60,dog,23,30,dog,distractor,37,19,0.6607142857142857,NA,1,1,NA,540,1,616.6666666666667,616.6666666666667,1233.3333333333335,-2
31_ronfard_2021_19,6,shoe,19,31,shoe,distractor,17,39,0.30357142857142855,0.06321839080459768,1,1,NA,1040,1,283.33333333333337,283.33333333333337,566.6666666666667,-6
31_ronfard_2021_19,15,baby,19,31,baby,distractor,45,11,0.8035714285714286,0.6379310344827587,1,1,NA,340,1,750,750,1500,-6
31_ronfard_2021_19,29,ball,19,31,ball,distractor,18,36,0.3333333333333333,NA,1,1,NA,1015,1,300,300,600,-6
31_ronfard_2021_19,34,birdie,19,31,birdie,distractor,46,8,0.8518518518518519,0.603448275862069,1,1,NA,240,0,766.6666666666667,766.6666666666667,1533.3333333333335,-6
31_ronfard_2021_19,35,car,19,31,car,distractor,36,20,0.6428571428571429,0.02298850574712641,1,1,NA,540,1,600,600,1200,-6
31_ronfard_2021_19,41,ball,19,31,ball,distractor,0,44,0,NA,NA,0,NA,NA,0,NA,NA,NA,-6
31_ronfard_2021_19,43,car,19,31,car,distractor,46,6,0.8846153846153846,0.02298850574712641,1,1,NA,240,0,766.6666666666667,766.6666666666667,1533.3333333333335,-6
31_ronfard_2021_19,62,car,19,31,car,distractor,39,14,0.7358490566037735,0.02298850574712641,1,1,NA,215,0,650,650,1300,-6
32_ronfard_2021_20,1,dog,20,32,dog,distractor,7,41,0.14583333333333334,NA,NA,1,NA,1290,0,NA,NA,NA,-5
32_ronfard_2021_20,23,ball,20,32,ball,distractor,9,47,0.16071428571428573,NA,NA,1,NA,1240,0,NA,NA,NA,-5
32_ronfard_2021_20,27,shoe,20,32,shoe,distractor,0,30,0,NA,NA,0,NA,NA,0,NA,NA,NA,-5
32_ronfard_2021_20,30,dog,20,32,dog,distractor,32,17,0.6530612244897959,NA,1,1,NA,490,1,533.3333333333334,533.3333333333334,1066.6666666666667,-5
33_ronfard_2021_18,10,shoe,18,33,shoe,distractor,21,28,0.42857142857142855,NA,1,1,NA,140,1,233.33333333333334,233.33333333333334,466.6666666666667,-7
33_ronfard_2021_18,26,cat,18,33,cat,distractor,0,58,0,NA,NA,0,NA,NA,0,NA,NA,NA,-7
34_ronfard_2021_20,3,car,20,34,car,distractor,26,29,0.4727272727272727,-0.1637931034482759,1,1,NA,815,1,433.33333333333337,433.33333333333337,866.6666666666667,-5
34_ronfard_2021_20,8,cat,20,34,cat,distractor,0,58,0,0.060344827586206906,NA,0,NA,NA,0,NA,NA,NA,-5
34_ronfard_2021_20,15,birdie,20,34,birdie,distractor,11,43,0.2037037037037037,-0.04597701149425287,NA,1,NA,1190,0,NA,NA,NA,-5
34_ronfard_2021_20,17,car,20,34,car,distractor,50,4,0.9259259259259259,-0.1637931034482759,1,1,NA,215,0,833.3333333333334,833.3333333333334,1666.6666666666667,-5
34_ronfard_2021_20,22,book,20,34,book,distractor,30,25,0.5454545454545454,NA,1,1,NA,40,1,500.00000000000006,500.00000000000006,1000.0000000000001,-5
34_ronfard_2021_20,30,dog,20,34,dog,distractor,37,15,0.7115384615384616,-0.025862068965517238,1,1,NA,540,1,616.6666666666667,616.6666666666667,1233.3333333333335,-5
34_ronfard_2021_20,41,birdie,20,34,birdie,distractor,49,7,0.875,-0.04597701149425287,1,1,NA,240,0,816.6666666666667,816.6666666666667,1633.3333333333335,-5
34_ronfard_2021_20,45,birdie,20,34,birdie,distractor,13,34,0.2765957446808511,-0.04597701149425287,1,1,NA,1140,1,216.66666666666669,216.66666666666669,433.33333333333337,-5
34_ronfard_2021_20,51,shoe,20,34,shoe,distractor,17,37,0.3148148148148148,-0.13793103448275865,1,1,NA,1040,1,283.33333333333337,283.33333333333337,566.6666666666667,-5
34_ronfard_2021_20,54,cat,20,34,cat,distractor,37,19,0.6607142857142857,0.060344827586206906,1,1,NA,540,1,616.6666666666667,616.6666666666667,1233.3333333333335,-5
34_ronfard_2021_20,58,baby,20,34,baby,distractor,29,27,0.5178571428571429,0.017241379310344807,1,1,NA,740,1,483.33333333333337,483.33333333333337,966.6666666666667,-5
34_ronfard_2021_20,63,shoe,20,34,shoe,distractor,0,58,0,-0.13793103448275865,NA,0,NA,NA,0,NA,NA,NA,-5
34_ronfard_2021_20,65,book,20,34,book,distractor,0,58,0,NA,NA,0,NA,NA,0,NA,NA,NA,-5
35_ronfard_2021_18,1,dog,18,35,dog,distractor,42,5,0.8936170212765957,0.2586206896551724,1,1,NA,90,1,700,700,1400,-7
35_ronfard_2021_18,3,car,18,35,car,distractor,37,19,0.6607142857142857,0.18965517241379304,1,1,NA,540,1,616.6666666666667,616.6666666666667,1233.3333333333335,-7
35_ronfard_2021_18,7,shoe,18,35,shoe,distractor,33,21,0.6111111111111112,0.2011494252873563,1,1,NA,640,1,550,550,1100,-7
35_ronfard_2021_18,8,cat,18,35,cat,distractor,38,16,0.7037037037037037,0.31034482758620685,1,1,NA,515,1,633.3333333333334,633.3333333333334,1266.6666666666667,-7
35_ronfard_2021_18,16,ball,18,35,ball,distractor,29,27,0.5178571428571429,NA,1,1,NA,740,1,483.33333333333337,483.33333333333337,966.6666666666667,-7
35_ronfard_2021_18,17,car,18,35,car,distractor,32,14,0.6956521739130435,0.18965517241379304,1,1,NA,315,2,533.3333333333334,533.3333333333334,1066.6666666666667,-7
35_ronfard_2021_18,23,ball,18,35,ball,distractor,42,12,0.7777777777777778,NA,1,1,NA,415,1,700,700,1400,-7
35_ronfard_2021_18,27,shoe,18,35,shoe,distractor,25,25,0.5,0.2011494252873563,1,1,NA,390,2,416.6666666666667,416.6666666666667,833.3333333333334,-7
35_ronfard_2021_18,48,car,18,35,car,distractor,33,19,0.6346153846153846,0.18965517241379304,1,1,NA,215,1,550,550,1100,-7
35_ronfard_2021_18,55,baby,18,35,baby,distractor,43,11,0.7962962962962963,NA,1,1,NA,390,1,716.6666666666667,716.6666666666667,1433.3333333333335,-7
35_ronfard_2021_18,60,dog,18,35,dog,distractor,20,35,0.36363636363636365,0.2586206896551724,1,1,NA,15,1,333.33333333333337,333.33333333333337,666.6666666666667,-7
36_ronfard_2021_18,6,shoe,18,36,shoe,distractor,43,11,0.7962962962962963,0.3448275862068966,1,1,NA,390,1,716.6666666666667,716.6666666666667,1433.3333333333335,-7
36_ronfard_2021_18,7,book,18,36,book,distractor,37,19,0.6607142857142857,NA,1,1,NA,540,1,616.6666666666667,616.6666666666667,1233.3333333333335,-7
36_ronfard_2021_18,14,cat,18,36,cat,distractor,37,14,0.7254901960784313,0.4827586206896552,1,1,NA,290,0,616.6666666666667,616.6666666666667,1233.3333333333335,-7
36_ronfard_2021_18,19,cat,18,36,cat,distractor,29,22,0.5686274509803921,0.4827586206896552,1,1,NA,490,1,483.33333333333337,483.33333333333337,966.6666666666667,-7
36_ronfard_2021_18,22,birdie,18,36,birdie,distractor,45,9,0.8333333333333334,NA,1,1,NA,340,1,750,750,1500,-7
36_ronfard_2021_18,25,car,18,36,car,distractor,54,1,0.9818181818181818,0.36206896551724144,1,1,NA,115,0,900.0000000000001,900.0000000000001,1800.0000000000002,-7
36_ronfard_2021_18,32,dog,18,36,dog,distractor,42,5,0.8936170212765957,0.41379310344827586,1,1,NA,215,0,666.6666666666667,666.6666666666667,1333.3333333333335,-7
36_ronfard_2021_18,34,birdie,18,36,birdie,distractor,32,16,0.6666666666666666,NA,1,1,NA,340,1,533.3333333333334,533.3333333333334,1066.6666666666667,-7
36_ronfard_2021_18,35,car,18,36,car,distractor,26,26,0.5,0.36206896551724144,1,1,NA,190,1,433.33333333333337,433.33333333333337,866.6666666666667,-7
36_ronfard_2021_18,36,shoe,18,36,shoe,distractor,24,27,0.47058823529411764,0.3448275862068966,1,1,NA,590,1,400,400,800,-7
37_ronfard_2021_21,3,car,21,37,car,distractor,17,37,0.3148148148148148,0.09913793103448276,1,1,NA,1040,1,283.33333333333337,283.33333333333337,566.6666666666667,-4
37_ronfard_2021_21,4,book,21,37,book,distractor,37,19,0.6607142857142857,0.13793103448275867,1,1,NA,540,1,616.6666666666667,616.6666666666667,1233.3333333333335,-4
37_ronfard_2021_21,7,shoe,21,37,shoe,distractor,37,19,0.6607142857142857,0.2887931034482759,1,1,NA,540,1,616.6666666666667,616.6666666666667,1233.3333333333335,-4
37_ronfard_2021_21,8,cat,21,37,cat,distractor,0,39,0,0.10919540229885058,NA,0,NA,NA,0,NA,NA,NA,-4
37_ronfard_2021_21,17,car,21,37,car,distractor,46,9,0.8363636363636363,0.09913793103448276,1,1,NA,315,1,766.6666666666667,766.6666666666667,1533.3333333333335,-4
37_ronfard_2021_21,19,baby,21,37,baby,distractor,38,19,0.6666666666666666,NA,1,1,NA,515,1,633.3333333333334,633.3333333333334,1266.6666666666667,-4
37_ronfard_2021_21,26,car,21,37,car,distractor,35,19,0.6481481481481481,0.09913793103448276,1,1,NA,590,1,583.3333333333334,583.3333333333334,1166.6666666666667,-4
37_ronfard_2021_21,30,dog,21,37,dog,distractor,45,9,0.8333333333333334,0.2586206896551724,1,1,NA,340,1,750,750,1500,-4
37_ronfard_2021_21,36,ball,21,37,ball,distractor,26,29,0.4727272727272727,0.12068965517241381,1,1,NA,815,1,433.33333333333337,433.33333333333337,866.6666666666667,-4
37_ronfard_2021_21,39,dog,21,37,dog,distractor,43,12,0.7818181818181819,0.2586206896551724,1,1,NA,390,1,716.6666666666667,716.6666666666667,1433.3333333333335,-4
37_ronfard_2021_21,43,cat,21,37,cat,distractor,32,21,0.6037735849056604,0.10919540229885058,1,1,NA,90,1,533.3333333333334,533.3333333333334,1066.6666666666667,-4
37_ronfard_2021_21,48,car,21,37,car,distractor,1,16,0.058823529411764705,0.09913793103448276,NA,1,NA,1440,0,NA,NA,NA,-4
37_ronfard_2021_21,55,baby,21,37,baby,distractor,20,33,0.37735849056603776,NA,1,1,NA,440,2,333.33333333333337,333.33333333333337,666.6666666666667,-4
37_ronfard_2021_21,60,dog,21,37,dog,distractor,47,8,0.8545454545454545,0.2586206896551724,1,1,NA,290,0,783.3333333333334,783.3333333333334,1566.6666666666667,-4
38_ronfard_2021_18,1,baby,18,38,baby,distractor,27,28,0.4909090909090909,0.025862068965517238,1,1,NA,790,1,450.00000000000006,450.00000000000006,900.0000000000001,-7
38_ronfard_2021_18,6,shoe,18,38,shoe,distractor,29,27,0.5178571428571429,0.16379310344827586,1,1,NA,740,1,483.33333333333337,483.33333333333337,966.6666666666667,-7
38_ronfard_2021_18,10,shoe,18,38,shoe,distractor,0,58,0,0.16379310344827586,NA,0,NA,NA,0,NA,NA,NA,-7
38_ronfard_2021_18,14,cat,18,38,cat,distractor,0,58,0,-0.3017241379310345,NA,0,NA,NA,0,NA,NA,NA,-7
38_ronfard_2021_18,19,cat,18,38,cat,distractor,27,27,0.5,-0.3017241379310345,1,1,NA,790,1,450.00000000000006,450.00000000000006,900.0000000000001,-7
38_ronfard_2021_18,25,car,18,38,car,distractor,45,9,0.8333333333333334,0.12068965517241381,1,1,NA,340,1,750,750,1500,-7
38_ronfard_2021_18,29,ball,18,38,ball,distractor,33,18,0.6470588235294118,NA,1,1,NA,415,1,550,550,1100,-7
38_ronfard_2021_18,30,birdie,18,38,birdie,distractor,38,16,0.7037037037037037,0.051724137931034475,1,1,NA,515,1,633.3333333333334,633.3333333333334,1266.6666666666667,-7
38_ronfard_2021_18,41,ball,18,38,ball,distractor,29,27,0.5178571428571429,NA,1,1,NA,740,1,483.33333333333337,483.33333333333337,966.6666666666667,-7
38_ronfard_2021_18,43,car,18,38,car,distractor,54,1,0.9818181818181818,0.12068965517241381,1,1,NA,115,0,900.0000000000001,900.0000000000001,1800.0000000000002,-7
38_ronfard_2021_18,53,baby,18,38,baby,distractor,8,42,0.16,0.025862068965517238,NA,1,NA,115,0,NA,NA,NA,-7
38_ronfard_2021_18,60,dog,18,38,dog,distractor,23,31,0.42592592592592593,-0.3362068965517241,1,1,NA,890,1,383.33333333333337,383.33333333333337,766.6666666666667,-7
39_ronfard_2021_23,14,cat,23,39,cat,distractor,46,8,0.8518518518518519,NA,1,1,NA,315,1,766.6666666666667,766.6666666666667,1533.3333333333335,-2
39_ronfard_2021_23,19,cat,23,39,cat,distractor,46,8,0.8518518518518519,NA,1,1,NA,315,1,766.6666666666667,766.6666666666667,1533.3333333333335,-2
39_ronfard_2021_23,22,birdie,23,39,birdie,distractor,46,8,0.8518518518518519,0.5172413793103449,1,1,NA,315,1,766.6666666666667,766.6666666666667,1533.3333333333335,-2
39_ronfard_2021_23,25,car,23,39,car,distractor,51,4,0.9272727272727272,NA,1,1,NA,190,0,850.0000000000001,850.0000000000001,1700.0000000000002,-2
39_ronfard_2021_23,30,birdie,23,39,birdie,distractor,53,1,0.9814814814814815,0.5172413793103449,1,1,NA,140,0,883.3333333333334,883.3333333333334,1766.6666666666667,-2
39_ronfard_2021_23,34,birdie,23,39,birdie,distractor,57,0,1,0.5172413793103449,1,1,NA,40,0,950.0000000000001,950.0000000000001,1900.0000000000002,-2
39_ronfard_2021_23,43,car,23,39,car,distractor,37,14,0.7254901960784313,NA,1,1,NA,115,1,616.6666666666667,616.6666666666667,1233.3333333333335,-2
39_ronfard_2021_23,45,baby,23,39,baby,distractor,28,22,0.56,0.4310344827586207,1,1,NA,290,1,466.6666666666667,466.6666666666667,933.3333333333334,-2
40_ronfard_2021_22,3,car,22,40,car,distractor,49,5,0.9074074074074074,0.4712643678160919,1,1,NA,240,0,816.6666666666667,816.6666666666667,1633.3333333333335,-3
40_ronfard_2021_22,4,book,22,40,book,distractor,33,21,0.6111111111111112,NA,1,1,NA,640,1,550,550,1100,-3
40_ronfard_2021_22,7,shoe,22,40,shoe,distractor,51,4,0.9272727272727272,0.47413793103448276,1,1,NA,190,0,850.0000000000001,850.0000000000001,1700.0000000000002,-3
40_ronfard_2021_22,8,cat,22,40,cat,distractor,37,19,0.6607142857142857,-0.33045977011494254,1,1,NA,540,1,616.6666666666667,616.6666666666667,1233.3333333333335,-3
40_ronfard_2021_22,10,baby,22,40,baby,distractor,53,3,0.9464285714285714,NA,1,1,NA,140,0,883.3333333333334,883.3333333333334,1766.6666666666667,-3
40_ronfard_2021_22,17,car,22,40,car,distractor,51,4,0.9272727272727272,0.4712643678160919,1,1,NA,190,0,850.0000000000001,850.0000000000001,1700.0000000000002,-3
40_ronfard_2021_22,22,book,22,40,book,distractor,1,55,0.017857142857142856,NA,NA,1,NA,1440,0,NA,NA,NA,-3
40_ronfard_2021_22,27,shoe,22,40,shoe,distractor,45,6,0.8823529411764706,0.47413793103448276,1,1,NA,90,0,750,750,1500,-3
40_ronfard_2021_22,30,dog,22,40,dog,distractor,25,27,0.4807692307692308,-0.4051724137931034,1,1,NA,840,1,416.6666666666667,416.6666666666667,833.3333333333334,-3
40_ronfard_2021_22,39,dog,22,40,dog,distractor,18,36,0.3333333333333333,-0.4051724137931034,1,1,NA,1015,1,300,300,600,-3
40_ronfard_2021_22,49,cat,22,40,cat,distractor,0,58,0,-0.33045977011494254,NA,0,NA,NA,0,NA,NA,NA,-3
40_ronfard_2021_22,54,cat,22,40,cat,distractor,0,58,0,-0.33045977011494254,NA,0,NA,NA,0,NA,NA,NA,-3
40_ronfard_2021_22,55,baby,22,40,baby,distractor,45,8,0.8490566037735849,NA,1,1,NA,340,1,750,750,1500,-3
40_ronfard_2021_22,58,baby,22,40,baby,distractor,26,28,0.48148148148148145,NA,1,1,NA,815,1,433.33333333333337,433.33333333333337,866.6666666666667,-3
40_ronfard_2021_22,63,shoe,22,40,shoe,distractor,0,58,0,0.47413793103448276,NA,0,NA,NA,0,NA,NA,NA,-3
40_ronfard_2021_22,65,book,22,40,book,distractor,21,33,0.3888888888888889,NA,1,1,NA,940,1,350,350,700,-3
41_ronfard_2021_24,1,dog,24,41,dog,distractor,21,26,0.44680851063829785,0.5201149425287357,1,1,NA,190,1,350,350,700,-1
41_ronfard_2021_24,4,shoe,24,41,shoe,distractor,43,9,0.8269230769230769,0.7241379310344828,1,1,NA,390,0,716.6666666666667,716.6666666666667,1433.3333333333335,-1
41_ronfard_2021_24,12,cat,24,41,cat,distractor,51,3,0.9444444444444444,0.5660919540229885,1,1,NA,190,0,850.0000000000001,850.0000000000001,1700.0000000000002,-1
41_ronfard_2021_24,13,baby,24,41,baby,distractor,55,0,1,0.8448275862068966,1,1,NA,90,0,916.6666666666667,916.6666666666667,1833.3333333333335,-1
41_ronfard_2021_24,20,birdie,24,41,birdie,distractor,53,1,0.9814814814814815,0.8362068965517241,1,1,NA,140,0,883.3333333333334,883.3333333333334,1766.6666666666667,-1
41_ronfard_2021_24,23,car,24,41,car,distractor,53,1,0.9814814814814815,0.7586206896551725,1,1,NA,140,0,883.3333333333334,883.3333333333334,1766.6666666666667,-1
41_ronfard_2021_24,27,ball,24,41,ball,distractor,50,5,0.9090909090909091,0.6494252873563219,1,1,NA,215,0,833.3333333333334,833.3333333333334,1666.6666666666667,-1
41_ronfard_2021_24,28,birdie,24,41,birdie,distractor,49,5,0.9074074074074074,0.8362068965517241,1,1,NA,240,0,816.6666666666667,816.6666666666667,1633.3333333333335,-1
41_ronfard_2021_24,30,dog,24,41,dog,distractor,51,1,0.9807692307692307,0.5201149425287357,1,1,NA,190,0,850.0000000000001,850.0000000000001,1700.0000000000002,-1
41_ronfard_2021_24,37,dog,24,41,dog,distractor,47,8,0.8545454545454545,0.5201149425287357,1,1,NA,290,0,783.3333333333334,783.3333333333334,1566.6666666666667,-1
41_ronfard_2021_24,39,ball,24,41,ball,distractor,54,1,0.9818181818181818,0.6494252873563219,1,1,NA,115,0,900.0000000000001,900.0000000000001,1800.0000000000002,-1
41_ronfard_2021_24,46,ball,24,41,ball,distractor,45,9,0.8333333333333334,0.6494252873563219,1,1,NA,340,1,750,750,1500,-1
41_ronfard_2021_24,49,cat,24,41,cat,distractor,38,16,0.7037037037037037,0.5660919540229885,1,1,NA,515,1,633.3333333333334,633.3333333333334,1266.6666666666667,-1
41_ronfard_2021_24,51,baby,24,41,baby,distractor,49,5,0.9074074074074074,0.8448275862068966,1,1,NA,240,0,816.6666666666667,816.6666666666667,1633.3333333333335,-1
41_ronfard_2021_24,61,book,24,41,book,distractor,42,12,0.7777777777777778,0.6379310344827587,1,1,NA,415,1,700,700,1400,-1
42_ronfard_2021_18,1,dog,18,42,dog,distractor,49,7,0.875,0.7241379310344828,1,1,NA,240,0,816.6666666666667,816.6666666666667,1633.3333333333335,-7
42_ronfard_2021_18,8,cat,18,42,cat,distractor,45,9,0.8333333333333334,0.689655172413793,1,1,NA,340,0,750,750,1500,-7
42_ronfard_2021_18,10,baby,18,42,baby,distractor,37,17,0.6851851851851852,0.051724137931034475,1,1,NA,540,1,616.6666666666667,616.6666666666667,1233.3333333333335,-7
42_ronfard_2021_18,17,car,18,42,car,distractor,42,13,0.7636363636363637,0.3879310344827586,1,1,NA,415,1,700,700,1400,-7
42_ronfard_2021_18,19,baby,18,42,baby,distractor,39,16,0.7090909090909091,0.051724137931034475,1,1,NA,490,1,650,650,1300,-7
42_ronfard_2021_18,26,car,18,42,car,distractor,37,17,0.6851851851851852,0.3879310344827586,1,1,NA,540,1,616.6666666666667,616.6666666666667,1233.3333333333335,-7
42_ronfard_2021_18,37,birdie,18,42,birdie,distractor,42,13,0.7636363636363637,0.08620689655172414,1,1,NA,415,1,700,700,1400,-7
42_ronfard_2021_18,45,birdie,18,42,birdie,distractor,1,57,0.017241379310344827,0.08620689655172414,NA,1,NA,1440,0,NA,NA,NA,-7
42_ronfard_2021_18,49,cat,18,42,cat,distractor,49,5,0.9074074074074074,0.689655172413793,1,1,NA,240,0,816.6666666666667,816.6666666666667,1633.3333333333335,-7
42_ronfard_2021_18,51,shoe,18,42,shoe,distractor,38,17,0.6909090909090909,0.396551724137931,1,1,NA,515,1,633.3333333333334,633.3333333333334,1266.6666666666667,-7
42_ronfard_2021_18,53,book,18,42,book,distractor,22,33,0.4,NA,1,1,NA,915,1,366.6666666666667,366.6666666666667,733.3333333333334,-7
42_ronfard_2021_18,65,book,18,42,book,distractor,34,20,0.6296296296296297,NA,1,1,NA,615,1,566.6666666666667,566.6666666666667,1133.3333333333335,-7
43_ronfard_2021_18,1,baby,18,43,baby,distractor,35,20,0.6363636363636364,-0.3275862068965517,1,1,NA,590,1,583.3333333333334,583.3333333333334,1166.6666666666667,-7
43_ronfard_2021_18,10,shoe,18,43,shoe,distractor,53,1,0.9814814814814815,0.5459770114942528,1,1,NA,140,0,883.3333333333334,883.3333333333334,1766.6666666666667,-7
43_ronfard_2021_18,12,baby,18,43,baby,distractor,43,12,0.7818181818181819,-0.3275862068965517,1,1,NA,390,1,716.6666666666667,716.6666666666667,1433.3333333333335,-7
43_ronfard_2021_18,14,cat,18,43,cat,distractor,55,0,1,0.7241379310344828,1,1,NA,90,0,916.6666666666667,916.6666666666667,1833.3333333333335,-7
43_ronfard_2021_18,22,birdie,18,43,birdie,distractor,0,58,0,-0.27586206896551724,NA,0,NA,NA,0,NA,NA,NA,-7
43_ronfard_2021_18,25,car,18,43,car,distractor,37,19,0.6607142857142857,0.5632183908045977,1,1,NA,540,1,616.6666666666667,616.6666666666667,1233.3333333333335,-7
43_ronfard_2021_18,29,ball,18,43,ball,distractor,27,28,0.4909090909090909,NA,1,1,NA,790,1,450.00000000000006,450.00000000000006,900.0000000000001,-7
43_ronfard_2021_18,32,dog,18,43,dog,distractor,41,13,0.7592592592592593,0.7068965517241379,1,1,NA,440,1,683.3333333333334,683.3333333333334,1366.6666666666667,-7
43_ronfard_2021_18,35,car,18,43,car,distractor,45,11,0.8035714285714286,0.5632183908045977,1,1,NA,340,1,750,750,1500,-7
43_ronfard_2021_18,36,shoe,18,43,shoe,distractor,37,19,0.6607142857142857,0.5459770114942528,1,1,NA,540,1,616.6666666666667,616.6666666666667,1233.3333333333335,-7
43_ronfard_2021_18,62,car,18,43,car,distractor,55,0,1,0.5632183908045977,1,1,NA,90,0,916.6666666666667,916.6666666666667,1833.3333333333335,-7
43_ronfard_2021_18,67,shoe,18,43,shoe,distractor,35,19,0.6481481481481481,0.5459770114942528,1,1,NA,590,1,583.3333333333334,583.3333333333334,1166.6666666666667,-7
44_ronfard_2021_20,1,dog,20,44,dog,distractor,46,7,0.8679245283018868,0.4655172413793104,1,1,NA,290,0,766.6666666666667,766.6666666666667,1533.3333333333335,-5
44_ronfard_2021_20,4,book,20,44,book,distractor,14,27,0.34146341463414637,NA,1,1,NA,1115,1,233.33333333333334,233.33333333333334,466.6666666666667,-5
44_ronfard_2021_20,8,cat,20,44,cat,distractor,35,19,0.6481481481481481,0.48275862068965514,1,1,NA,590,1,583.3333333333334,583.3333333333334,1166.6666666666667,-5
44_ronfard_2021_20,27,shoe,20,44,shoe,distractor,46,8,0.8518518518518519,NA,1,1,NA,315,1,766.6666666666667,766.6666666666667,1533.3333333333335,-5
44_ronfard_2021_20,45,birdie,20,44,birdie,distractor,50,1,0.9803921568627451,NA,1,1,NA,215,0,833.3333333333334,833.3333333333334,1666.6666666666667,-5
45_ronfard_2021_18,1,car,18,45,car,distractor,47,7,0.8703703703703703,0.603448275862069,1,1,NA,290,0,783.3333333333334,783.3333333333334,1566.6666666666667,-7
45_ronfard_2021_18,6,cat,18,45,cat,distractor,38,5,0.8837209302325582,0.5057471264367817,1,1,NA,190,0,633.3333333333334,633.3333333333334,1266.6666666666667,-7
45_ronfard_2021_18,13,birdie,18,45,birdie,distractor,47,8,0.8545454545454545,0.3563218390804598,1,1,NA,290,0,783.3333333333334,783.3333333333334,1566.6666666666667,-7
45_ronfard_2021_18,14,ball,18,45,ball,distractor,31,24,0.5636363636363636,NA,1,1,NA,690,1,516.6666666666667,516.6666666666667,1033.3333333333335,-7
45_ronfard_2021_18,17,baby,18,45,baby,distractor,25,26,0.49019607843137253,0.29310344827586204,1,1,NA,290,1,416.6666666666667,416.6666666666667,833.3333333333334,-7
45_ronfard_2021_18,30,ball,18,45,ball,distractor,31,23,0.5740740740740741,NA,1,1,NA,690,1,516.6666666666667,516.6666666666667,1033.3333333333335,-7
45_ronfard_2021_18,34,ball,18,45,ball,distractor,43,11,0.7962962962962963,NA,1,1,NA,390,1,716.6666666666667,716.6666666666667,1433.3333333333335,-7
45_ronfard_2021_18,37,dog,18,45,dog,distractor,42,13,0.7636363636363637,0.5488505747126436,1,1,NA,415,1,700,700,1400,-7
45_ronfard_2021_18,39,birdie,18,45,birdie,distractor,47,8,0.8545454545454545,0.3563218390804598,1,1,NA,290,0,783.3333333333334,783.3333333333334,1566.6666666666667,-7
45_ronfard_2021_18,43,birdie,18,45,birdie,distractor,46,8,0.8518518518518519,0.3563218390804598,1,1,NA,315,1,766.6666666666667,766.6666666666667,1533.3333333333335,-7
45_ronfard_2021_18,46,car,18,45,car,distractor,47,8,0.8545454545454545,0.603448275862069,1,1,NA,290,0,783.3333333333334,783.3333333333334,1566.6666666666667,-7
45_ronfard_2021_18,47,cat,18,45,cat,distractor,45,8,0.8490566037735849,0.5057471264367817,1,1,NA,340,1,750,750,1500,-7
45_ronfard_2021_18,49,shoe,18,45,shoe,distractor,43,12,0.7818181818181819,0.6120689655172414,1,1,NA,390,1,716.6666666666667,716.6666666666667,1433.3333333333335,-7
45_ronfard_2021_18,52,cat,18,45,cat,distractor,53,1,0.9814814814814815,0.5057471264367817,1,1,NA,140,0,883.3333333333334,883.3333333333334,1766.6666666666667,-7
45_ronfard_2021_18,58,dog,18,45,dog,distractor,31,19,0.62,0.5488505747126436,1,1,NA,690,1,516.6666666666667,516.6666666666667,1033.3333333333335,-7
46_ronfard_2021_22,4,book,22,46,book,distractor,38,17,0.6909090909090909,0.3620689655172414,1,1,NA,515,1,633.3333333333334,633.3333333333334,1266.6666666666667,-3
46_ronfard_2021_22,7,shoe,22,46,shoe,distractor,45,7,0.8653846153846154,NA,1,1,NA,190,0,750,750,1500,-3
46_ronfard_2021_22,8,cat,22,46,cat,distractor,58,0,1,0.15517241379310343,1,1,NA,15,0,966.6666666666667,966.6666666666667,1933.3333333333335,-3
46_ronfard_2021_22,10,baby,22,46,baby,distractor,27,8,0.7714285714285715,0.3448275862068965,1,1,NA,290,0,416.6666666666667,416.6666666666667,833.3333333333334,-3
46_ronfard_2021_22,16,ball,22,46,ball,distractor,37,17,0.6851851851851852,0.34482758620689663,1,1,NA,540,1,616.6666666666667,616.6666666666667,1233.3333333333335,-3
46_ronfard_2021_22,39,dog,22,46,dog,distractor,3,49,0.057692307692307696,0.05172413793103448,NA,1,NA,1390,0,NA,NA,NA,-3
46_ronfard_2021_22,41,birdie,22,46,birdie,distractor,41,15,0.7321428571428571,0.5344827586206896,1,1,NA,440,1,683.3333333333334,683.3333333333334,1366.6666666666667,-3
46_ronfard_2021_22,58,baby,22,46,baby,distractor,43,12,0.7818181818181819,0.3448275862068965,1,1,NA,390,1,716.6666666666667,716.6666666666667,1433.3333333333335,-3
47_ronfard_2021_20,27,shoe,20,47,shoe,distractor,30,24,0.5555555555555556,NA,1,1,NA,715,1,500.00000000000006,500.00000000000006,1000.0000000000001,-5
47_ronfard_2021_20,37,birdie,20,47,birdie,distractor,42,13,0.7636363636363637,-0.18965517241379315,1,1,NA,415,1,700,700,1400,-5
47_ronfard_2021_20,41,birdie,20,47,birdie,distractor,52,0,1,-0.18965517241379315,2,1,NA,40,0,433.33333333333337,650,1300,-5
47_ronfard_2021_20,49,cat,20,47,cat,distractor,0,58,0,-0.017241379310344827,NA,0,NA,NA,0,NA,NA,NA,-5
47_ronfard_2021_20,51,shoe,20,47,shoe,distractor,0,58,0,NA,NA,0,NA,NA,0,NA,NA,NA,-5
47_ronfard_2021_20,54,cat,20,47,cat,distractor,0,58,0,-0.017241379310344827,NA,0,NA,NA,0,NA,NA,NA,-5
47_ronfard_2021_20,55,baby,20,47,baby,distractor,0,58,0,-0.11206896551724138,NA,0,NA,NA,0,NA,NA,NA,-5
47_ronfard_2021_20,60,dog,20,47,dog,distractor,54,1,0.9818181818181818,-0.06896551724137934,1,1,NA,115,0,900.0000000000001,900.0000000000001,1800.0000000000002,-5
48_ronfard_2021_22,1,dog,22,48,dog,distractor,3,44,0.06382978723404255,-0.9482758620689655,NA,1,NA,1390,0,NA,NA,NA,-3
48_ronfard_2021_22,4,book,22,48,book,distractor,33,21,0.6111111111111112,0.48275862068965514,1,1,NA,640,1,550,550,1100,-3
48_ronfard_2021_22,7,shoe,22,48,shoe,distractor,42,12,0.7777777777777778,0.7241379310344828,1,1,NA,415,1,700,700,1400,-3
48_ronfard_2021_22,15,birdie,22,48,birdie,distractor,49,4,0.9245283018867925,NA,1,1,NA,215,0,816.6666666666667,816.6666666666667,1633.3333333333335,-3
48_ronfard_2021_22,16,ball,22,48,ball,distractor,32,13,0.7111111111111111,0.3275862068965517,1,1,NA,290,0,533.3333333333334,533.3333333333334,1066.6666666666667,-3
48_ronfard_2021_22,22,book,22,48,book,distractor,49,5,0.9074074074074074,0.48275862068965514,1,1,NA,240,0,816.6666666666667,816.6666666666667,1633.3333333333335,-3
48_ronfard_2021_22,26,car,22,48,car,distractor,58,0,1,0.7931034482758621,1,1,NA,15,0,966.6666666666667,966.6666666666667,1933.3333333333335,-3
48_ronfard_2021_22,49,cat,22,48,cat,distractor,0,58,0,-0.7586206896551724,NA,0,NA,NA,0,NA,NA,NA,-3
49_ronfard_2021_19,8,shoe,19,49,shoe,distractor,33,13,0.717391304347826,0.20689655172413796,1,1,NA,640,1,550,550,1100,-6
49_ronfard_2021_19,24,cat,19,49,cat,distractor,37,19,0.6607142857142857,0.5517241379310345,1,1,NA,540,1,616.6666666666667,616.6666666666667,1233.3333333333335,-6
49_ronfard_2021_19,28,birdie,19,49,birdie,distractor,33,18,0.6470588235294118,NA,1,1,NA,290,1,550,550,1100,-6
49_ronfard_2021_19,30,dog,19,49,dog,distractor,50,5,0.9090909090909091,0.6982758620689655,1,1,NA,215,0,833.3333333333334,833.3333333333334,1666.6666666666667,-6
49_ronfard_2021_19,49,cat,19,49,cat,distractor,37,0,1,0.5517241379310345,1,1,NA,15,0,616.6666666666667,616.6666666666667,1233.3333333333335,-6
49_ronfard_2021_19,60,car,19,49,car,distractor,32,21,0.6037735849056604,0.3275862068965517,1,1,NA,240,1,533.3333333333334,533.3333333333334,1066.6666666666667,-6
50_ronfard_2021_18,2,book,18,50,book,distractor,13,41,0.24074074074074073,-0.13793103448275862,1,1,NA,1140,1,216.66666666666669,216.66666666666669,433.33333333333337,-7
50_ronfard_2021_18,7,baby,18,50,baby,distractor,18,36,0.3333333333333333,-0.471264367816092,1,1,NA,1015,1,300,300,600,-7
50_ronfard_2021_18,9,cat,18,50,cat,distractor,33,21,0.6111111111111112,-0.13793103448275856,1,1,NA,640,1,550,550,1100,-7
50_ronfard_2021_18,14,cat,18,50,cat,distractor,33,21,0.6111111111111112,-0.13793103448275856,1,1,NA,640,1,550,550,1100,-7
50_ronfard_2021_18,17,birdie,18,50,birdie,distractor,34,20,0.6296296296296297,-0.4252873563218391,1,1,NA,615,1,566.6666666666667,566.6666666666667,1133.3333333333335,-7
50_ronfard_2021_18,24,ball,18,50,ball,distractor,22,28,0.44,-0.2068965517241379,1,1,NA,590,2,366.6666666666667,366.6666666666667,733.3333333333334,-7
50_ronfard_2021_18,27,dog,18,50,dog,distractor,11,41,0.21153846153846154,-0.1724137931034483,NA,1,NA,1190,0,NA,NA,NA,-7
50_ronfard_2021_18,29,birdie,18,50,birdie,distractor,0,58,0,-0.4252873563218391,NA,0,NA,NA,0,NA,NA,NA,-7
50_ronfard_2021_18,31,shoe,18,50,shoe,distractor,27,28,0.4909090909090909,NA,1,1,NA,790,1,450.00000000000006,450.00000000000006,900.0000000000001,-7
50_ronfard_2021_18,42,book,18,50,book,distractor,0,58,0,-0.13793103448275862,NA,0,NA,NA,0,NA,NA,NA,-7
50_ronfard_2021_18,43,ball,18,50,ball,distractor,53,1,0.9814814814814815,-0.2068965517241379,1,1,NA,140,0,883.3333333333334,883.3333333333334,1766.6666666666667,-7
50_ronfard_2021_18,52,birdie,18,50,birdie,distractor,0,58,0,-0.4252873563218391,NA,0,NA,NA,0,NA,NA,NA,-7
51_ronfard_2021_21,2,book,21,51,book,distractor,31,23,0.5740740740740741,0.07758620689655166,1,1,NA,690,1,516.6666666666667,516.6666666666667,1033.3333333333335,-4
51_ronfard_2021_21,13,birdie,21,51,birdie,distractor,45,3,0.9375,0.5402298850574713,1,1,NA,340,1,750,750,1500,-4
51_ronfard_2021_21,14,ball,21,51,ball,distractor,30,24,0.5555555555555556,0.08620689655172414,1,1,NA,715,1,500.00000000000006,500.00000000000006,1000.0000000000001,-4
51_ronfard_2021_21,21,ball,21,51,ball,distractor,26,29,0.4727272727272727,0.08620689655172414,1,1,NA,815,1,433.33333333333337,433.33333333333337,866.6666666666667,-4
51_ronfard_2021_21,24,car,21,51,car,distractor,41,13,0.7592592592592593,0.43103448275862066,1,1,NA,440,1,683.3333333333334,683.3333333333334,1366.6666666666667,-4
51_ronfard_2021_21,39,birdie,21,51,birdie,distractor,39,15,0.7222222222222222,0.5402298850574713,1,1,NA,490,1,650,650,1300,-4
51_ronfard_2021_21,41,cat,21,51,cat,distractor,45,11,0.8035714285714286,NA,1,1,NA,340,1,750,750,1500,-4
51_ronfard_2021_21,43,birdie,21,51,birdie,distractor,49,5,0.9074074074074074,0.5402298850574713,1,1,NA,240,0,816.6666666666667,816.6666666666667,1633.3333333333335,-4
51_ronfard_2021_21,53,baby,21,51,baby,distractor,42,13,0.7636363636363637,0.5919540229885057,1,1,NA,415,1,700,700,1400,-4
51_ronfard_2021_21,61,shoe,21,51,shoe,distractor,39,16,0.7090909090909091,0.4482758620689655,1,1,NA,490,1,650,650,1300,-4
52_ronfard_2021_24,4,shoe,24,52,shoe,distractor,53,3,0.9464285714285714,0.48275862068965525,1,1,NA,140,0,883.3333333333334,883.3333333333334,1766.6666666666667,-1
52_ronfard_2021_24,5,book,24,52,book,distractor,49,7,0.875,NA,1,1,NA,240,0,816.6666666666667,816.6666666666667,1633.3333333333335,-1
52_ronfard_2021_24,13,baby,24,52,baby,distractor,44,7,0.8627450980392157,NA,1,1,NA,140,0,733.3333333333334,733.3333333333334,1466.6666666666667,-1
52_ronfard_2021_24,33,car,24,52,car,distractor,29,25,0.5370370370370371,0.4482758620689655,1,1,NA,740,1,483.33333333333337,483.33333333333337,966.6666666666667,-1
53_ronfard_2021_23,1,baby,23,53,baby,distractor,3,51,0.05555555555555555,NA,NA,1,NA,1390,0,NA,NA,NA,-2
53_ronfard_2021_23,3,dog,23,53,dog,distractor,49,5,0.9074074074074074,0.39655172413793105,1,1,NA,240,0,816.6666666666667,816.6666666666667,1633.3333333333335,-2
53_ronfard_2021_23,7,book,23,53,book,distractor,53,1,0.9814814814814815,0.8362068965517242,1,1,NA,140,0,883.3333333333334,883.3333333333334,1766.6666666666667,-2
53_ronfard_2021_23,19,cat,23,53,cat,distractor,32,12,0.7272727272727273,0.2068965517241379,1,1,NA,415,1,516.6666666666667,516.6666666666667,1033.3333333333335,-2
53_ronfard_2021_23,25,car,23,53,car,distractor,47,8,0.8545454545454545,-0.017241379310344862,1,1,NA,290,0,783.3333333333334,783.3333333333334,1566.6666666666667,-2
53_ronfard_2021_23,32,dog,23,53,dog,distractor,21,35,0.375,0.39655172413793105,1,1,NA,940,1,350,350,700,-2
53_ronfard_2021_23,36,shoe,23,53,shoe,distractor,7,48,0.12727272727272726,-0.01724137931034482,NA,1,NA,1290,0,NA,NA,NA,-2
53_ronfard_2021_23,41,ball,23,53,ball,distractor,53,1,0.9814814814814815,0.7758620689655172,1,1,NA,140,0,883.3333333333334,883.3333333333334,1766.6666666666667,-2
53_ronfard_2021_23,48,ball,23,53,ball,distractor,39,8,0.8297872340425532,0.7758620689655172,1,1,NA,490,0,650,650,1300,-2
55_ronfard_2021_20,1,baby,20,55,baby,distractor,42,10,0.8076923076923077,0.8218390804597702,1,1,NA,90,1,700,700,1400,-5
55_ronfard_2021_20,6,shoe,20,55,shoe,distractor,30,25,0.5454545454545454,NA,1,1,NA,715,1,500.00000000000006,500.00000000000006,1000.0000000000001,-5
55_ronfard_2021_20,14,cat,20,55,cat,distractor,53,1,0.9814814814814815,0.7155172413793104,1,1,NA,140,0,883.3333333333334,883.3333333333334,1766.6666666666667,-5
55_ronfard_2021_20,15,baby,20,55,baby,distractor,50,1,0.9803921568627451,0.8218390804597702,1,1,NA,90,0,833.3333333333334,833.3333333333334,1666.6666666666667,-5
55_ronfard_2021_20,19,cat,20,55,cat,distractor,36,2,0.9473684210526315,0.7155172413793104,1,1,NA,115,0,450.00000000000006,450.00000000000006,900.0000000000001,-5
55_ronfard_2021_20,29,ball,20,55,ball,distractor,39,15,0.7222222222222222,0.5977011494252873,1,1,NA,490,1,650,650,1300,-5
55_ronfard_2021_20,34,birdie,20,55,birdie,distractor,58,0,1,0.9137931034482758,1,1,NA,15,0,966.6666666666667,966.6666666666667,1933.3333333333335,-5
55_ronfard_2021_20,36,shoe,20,55,shoe,distractor,58,0,1,NA,1,1,NA,15,0,966.6666666666667,966.6666666666667,1933.3333333333335,-5
55_ronfard_2021_20,39,dog,20,55,dog,distractor,51,3,0.9444444444444444,0.853448275862069,1,1,NA,190,0,850.0000000000001,850.0000000000001,1700.0000000000002,-5
55_ronfard_2021_20,45,baby,20,55,baby,distractor,51,4,0.9272727272727272,0.8218390804597702,1,1,NA,190,0,850.0000000000001,850.0000000000001,1700.0000000000002,-5
55_ronfard_2021_20,47,book,20,55,book,distractor,51,4,0.9272727272727272,0.6551724137931034,1,1,NA,190,0,850.0000000000001,850.0000000000001,1700.0000000000002,-5
55_ronfard_2021_20,48,ball,20,55,ball,distractor,51,4,0.9272727272727272,0.5977011494252873,1,1,NA,190,0,850.0000000000001,850.0000000000001,1700.0000000000002,-5
55_ronfard_2021_20,58,ball,20,55,ball,distractor,26,20,0.5652173913043478,0.5977011494252873,1,1,NA,815,1,433.33333333333337,433.33333333333337,866.6666666666667,-5
55_ronfard_2021_20,67,shoe,20,55,shoe,distractor,26,25,0.5098039215686274,NA,1,1,NA,815,1,433.33333333333337,433.33333333333337,866.6666666666667,-5
57_ronfard_2021_18,1,shoe,18,57,shoe,distractor,13,39,0.25,0.18995765275257115,1,1,NA,1090,1,216.66666666666669,216.66666666666669,433.33333333333337,-7
57_ronfard_2021_18,2,book,18,57,book,distractor,14,43,0.24561403508771928,NA,1,1,NA,1115,1,233.33333333333334,233.33333333333334,466.6666666666667,-7
57_ronfard_2021_18,5,shoe,18,57,shoe,distractor,46,8,0.8518518518518519,0.18995765275257115,1,1,NA,315,1,766.6666666666667,766.6666666666667,1533.3333333333335,-7
57_ronfard_2021_18,10,baby,18,57,baby,distractor,39,15,0.7222222222222222,0.4655172413793104,1,1,NA,490,1,650,650,1300,-7
57_ronfard_2021_18,25,birdie,18,57,birdie,distractor,42,13,0.7636363636363637,0.48275862068965514,1,1,NA,415,1,700,700,1400,-7
57_ronfard_2021_18,30,car,18,57,car,distractor,43,14,0.7543859649122807,0.2256503327283727,1,1,NA,15,1,716.6666666666667,716.6666666666667,1433.3333333333335,-7
57_ronfard_2021_18,38,car,18,57,car,distractor,31,24,0.5636363636363636,0.2256503327283727,1,1,NA,690,1,516.6666666666667,516.6666666666667,1033.3333333333335,-7
57_ronfard_2021_18,40,baby,18,57,baby,distractor,41,13,0.7592592592592593,0.4655172413793104,1,1,NA,440,1,683.3333333333334,683.3333333333334,1366.6666666666667,-7
57_ronfard_2021_18,58,book,18,57,book,distractor,25,31,0.44642857142857145,NA,1,1,NA,840,1,416.6666666666667,416.6666666666667,833.3333333333334,-7
58_ronfard_2021_21,4,book,21,58,book,distractor,46,9,0.8363636363636363,0.6293103448275863,1,1,NA,315,1,766.6666666666667,766.6666666666667,1533.3333333333335,-4
58_ronfard_2021_21,7,shoe,21,58,shoe,distractor,50,5,0.9090909090909091,0.6724137931034482,1,1,NA,215,0,833.3333333333334,833.3333333333334,1666.6666666666667,-4
58_ronfard_2021_21,8,cat,21,58,cat,distractor,31,23,0.5740740740740741,NA,1,1,NA,690,1,516.6666666666667,516.6666666666667,1033.3333333333335,-4
58_ronfard_2021_21,16,ball,21,58,ball,distractor,42,12,0.7777777777777778,0.6293103448275862,1,1,NA,390,1,700,416.6666666666667,1400,-4
58_ronfard_2021_21,23,ball,21,58,ball,distractor,49,7,0.875,0.6293103448275862,1,1,NA,240,0,816.6666666666667,816.6666666666667,1633.3333333333335,-4
58_ronfard_2021_21,37,birdie,21,58,birdie,distractor,31,13,0.7045454545454546,NA,1,1,NA,315,1,516.6666666666667,516.6666666666667,1033.3333333333335,-4
58_ronfard_2021_21,41,birdie,21,58,birdie,distractor,22,28,0.44,NA,1,1,NA,540,2,366.6666666666667,366.6666666666667,733.3333333333334,-4
58_ronfard_2021_21,48,car,21,58,car,distractor,43,11,0.7962962962962963,0.6551724137931034,1,1,NA,390,1,716.6666666666667,716.6666666666667,1433.3333333333335,-4
59_ronfard_2021_18,3,car,18,59,car,distractor,42,16,0.7241379310344828,0.5,1,1,NA,415,1,700,700,1400,-7
59_ronfard_2021_18,7,shoe,18,59,shoe,distractor,39,13,0.75,0.39655172413793105,1,1,NA,490,1,650,650,1300,-7
59_ronfard_2021_18,15,birdie,18,59,birdie,distractor,36,14,0.72,NA,1,1,NA,440,1,600,600,1200,-7
59_ronfard_2021_18,16,ball,18,59,ball,distractor,45,9,0.8333333333333334,0.6551724137931034,1,1,NA,340,1,750,750,1500,-7
59_ronfard_2021_18,22,book,18,59,book,distractor,49,7,0.875,0.6724137931034483,1,1,NA,240,0,816.6666666666667,816.6666666666667,1633.3333333333335,-7
59_ronfard_2021_18,23,ball,18,59,ball,distractor,45,11,0.8035714285714286,0.6551724137931034,1,1,NA,340,1,750,750,1500,-7
59_ronfard_2021_18,41,birdie,18,59,birdie,distractor,45,11,0.8035714285714286,NA,1,1,NA,340,1,750,750,1500,-7
60_ronfard_2021_22,4,book,22,60,book,distractor,39,16,0.7090909090909091,0.1724137931034483,1,1,NA,490,1,650,650,1300,-3
60_ronfard_2021_22,8,cat,22,60,cat,distractor,33,21,0.6111111111111112,NA,1,1,NA,640,1,550,550,1100,-3
60_ronfard_2021_22,10,baby,22,60,baby,distractor,42,12,0.7777777777777778,NA,1,1,NA,340,1,700,700,1400,-3
60_ronfard_2021_22,22,book,22,60,book,distractor,45,11,0.8035714285714286,0.1724137931034483,1,1,NA,340,1,750,750,1500,-3
60_ronfard_2021_22,23,ball,22,60,ball,distractor,23,32,0.41818181818181815,0.16379310344827588,1,1,NA,890,1,383.33333333333337,383.33333333333337,766.6666666666667,-3
61_ronfard_2021_18,1,dog,18,61,dog,distractor,24,25,0.4897959183673469,0.11494252873563221,1,1,NA,490,2,400,400,800,-7
61_ronfard_2021_18,3,car,18,61,car,distractor,28,21,0.5714285714285714,NA,1,1,NA,215,1,466.6666666666667,466.6666666666667,933.3333333333334,-7
61_ronfard_2021_18,4,book,18,61,book,distractor,41,13,0.7592592592592593,0.3448275862068965,1,1,NA,440,1,683.3333333333334,683.3333333333334,1366.6666666666667,-7
61_ronfard_2021_18,15,birdie,18,61,birdie,distractor,45,11,0.8035714285714286,0.5689655172413792,1,1,NA,340,1,750,750,1500,-7
61_ronfard_2021_18,19,baby,18,61,baby,distractor,44,8,0.8461538461538461,0.5689655172413792,1,1,NA,240,0,733.3333333333334,733.3333333333334,1466.6666666666667,-7
61_ronfard_2021_18,32,ball,18,61,ball,distractor,33,21,0.6111111111111112,0.3448275862068966,1,1,NA,640,1,550,550,1100,-7
61_ronfard_2021_18,39,dog,18,61,dog,distractor,27,27,0.5,0.11494252873563221,1,1,NA,790,1,450.00000000000006,450.00000000000006,900.0000000000001,-7
61_ronfard_2021_18,43,cat,18,61,cat,distractor,37,19,0.6607142857142857,0.17816091954022995,1,1,NA,540,1,616.6666666666667,616.6666666666667,1233.3333333333335,-7
61_ronfard_2021_18,45,birdie,18,61,birdie,distractor,40,11,0.7843137254901961,0.5689655172413792,1,1,NA,315,1,666.6666666666667,666.6666666666667,1333.3333333333335,-7
61_ronfard_2021_18,48,car,18,61,car,distractor,42,12,0.7777777777777778,NA,1,1,NA,415,1,700,700,1400,-7
61_ronfard_2021_18,58,baby,18,61,baby,distractor,44,11,0.8,0.5689655172413792,1,1,NA,340,1,733.3333333333334,733.3333333333334,1466.6666666666667,-7
61_ronfard_2021_18,60,dog,18,61,dog,distractor,26,28,0.48148148148148145,0.11494252873563221,1,1,NA,815,1,433.33333333333337,433.33333333333337,866.6666666666667,-7
62_ronfard_2021_18,1,shoe,18,62,shoe,distractor,34,20,0.6296296296296297,0.5172413793103448,1,1,NA,615,1,566.6666666666667,566.6666666666667,1133.3333333333335,-7
62_ronfard_2021_18,9,cat,18,62,cat,distractor,31,24,0.5636363636363636,0.5258620689655172,1,1,NA,690,1,516.6666666666667,516.6666666666667,1033.3333333333335,-7
62_ronfard_2021_18,14,cat,18,62,cat,distractor,38,16,0.7037037037037037,0.5258620689655172,1,1,NA,515,1,633.3333333333334,633.3333333333334,1266.6666666666667,-7
62_ronfard_2021_18,17,birdie,18,62,birdie,distractor,23,31,0.42592592592592593,NA,1,1,NA,890,1,383.33333333333337,383.33333333333337,766.6666666666667,-7
62_ronfard_2021_18,20,car,18,62,car,distractor,46,8,0.8518518518518519,0.5172413793103449,1,1,NA,315,1,766.6666666666667,766.6666666666667,1533.3333333333335,-7
62_ronfard_2021_18,25,birdie,18,62,birdie,distractor,37,16,0.6981132075471698,NA,1,1,NA,540,1,616.6666666666667,616.6666666666667,1233.3333333333335,-7
62_ronfard_2021_18,27,dog,18,62,dog,distractor,50,4,0.9259259259259259,0.5172413793103448,1,1,NA,215,0,833.3333333333334,833.3333333333334,1666.6666666666667,-7
62_ronfard_2021_18,29,birdie,18,62,birdie,distractor,46,8,0.8518518518518519,NA,1,1,NA,315,1,766.6666666666667,766.6666666666667,1533.3333333333335,-7
62_ronfard_2021_18,31,shoe,18,62,shoe,distractor,42,12,0.7777777777777778,0.5172413793103448,1,1,NA,415,1,700,700,1400,-7
62_ronfard_2021_18,36,ball,18,62,ball,distractor,34,21,0.6181818181818182,NA,1,1,NA,615,1,566.6666666666667,566.6666666666667,1133.3333333333335,-7
62_ronfard_2021_18,52,birdie,18,62,birdie,distractor,32,18,0.64,NA,1,1,NA,340,2,533.3333333333334,533.3333333333334,1066.6666666666667,-7
108_pomper_saffran_2016_46,10,sock,46,108,sock,distractor,84,18,0.8235294117647058,NA,1,1,NA,340,0,1400,1400,2800,21
108_pomper_saffran_2016_46,11,hose,46,108,hose,distractor,90,14,0.8653846153846154,NA,1,1,NA,140,0,1500,1500,3000,21
108_pomper_saffran_2016_46,12,glove,46,108,glove,distractor,46,56,0.45098039215686275,NA,1,0,NA,NA,1,766.6666666666667,766.6666666666667,1533.3333333333335,21
108_pomper_saffran_2016_46,13,donut,46,108,donut,distractor,95,8,0.9223300970873787,NA,1,1,NA,290,0,1583.3333333333335,1583.3333333333335,3166.666666666667,21
109_pomper_saffran_2016_43,2,knife,43,109,knife,distractor,75,15,0.8333333333333334,NA,1,1,NA,215,0,1133.3333333333335,1133.3333333333335,2266.666666666667,18
109_pomper_saffran_2016_43,6,tape,43,109,tape,distractor,46,54,0.46,NA,1,1,NA,190,1,766.6666666666667,766.6666666666667,1533.3333333333335,18
110_pomper_saffran_2016_47,13,can,47,110,can,distractor,59,42,0.5841584158415841,NA,1,1,NA,540,2,983.3333333333334,983.3333333333334,1966.6666666666667,22
110_pomper_saffran_2016_47,15,muffin,47,110,muffin,distractor,97,7,0.9326923076923077,NA,1,1,NA,240,0,1616.6666666666667,1616.6666666666667,3233.3333333333335,22
111_pomper_saffran_2016_42,3,hammer,42,111,hammer,distractor,98,5,0.9514563106796117,NA,1,1,NA,215,0,1633.3333333333335,1633.3333333333335,3266.666666666667,17
111_pomper_saffran_2016_42,4,ladder,42,111,ladder,distractor,98,5,0.9514563106796117,NA,1,1,NA,215,0,1633.3333333333335,1633.3333333333335,3266.666666666667,17
111_pomper_saffran_2016_42,5,slipper,42,111,slipper,distractor,102,1,0.9902912621359223,NA,1,1,NA,115,0,1700.0000000000002,1700.0000000000002,3400.0000000000005,17
111_pomper_saffran_2016_42,8,chalk,42,111,chalk,distractor,99,4,0.9611650485436893,NA,1,1,NA,190,0,1650.0000000000002,1650.0000000000002,3300.0000000000005,17
112_pomper_saffran_2016_43,11,hose,43,112,hose,distractor,102,0,1,NA,1,1,NA,115,0,1700.0000000000002,1700.0000000000002,3400.0000000000005,18
112_pomper_saffran_2016_43,15,necklace,43,112,necklace,distractor,87,15,0.8529411764705882,NA,1,1,NA,440,1,1450,1450,2900,18
113_pomper_saffran_2016_42,9,slide,42,113,slide,distractor,87,15,0.8529411764705882,NA,1,1,NA,490,1,1450,1450,2900,17
113_pomper_saffran_2016_42,14,tape,42,113,tape,distractor,22,77,0.2222222222222222,NA,1,1,NA,1090,2,366.6666666666667,366.6666666666667,733.3333333333334,17
113_pomper_saffran_2016_42,15,dress,42,113,dress,distractor,78,3,0.9629629629629629,NA,2,1,NA,140,0,650,916.6666666666667,1833.3333333333335,17
114_pomper_saffran_2016_42,2,knife,42,114,knife,distractor,73,31,0.7019230769230769,NA,1,1,NA,840,1,1216.6666666666667,1216.6666666666667,2433.3333333333335,17
114_pomper_saffran_2016_42,5,belt,42,114,belt,distractor,103,0,1,NA,1,1,NA,90,0,1716.6666666666667,1716.6666666666667,3433.3333333333335,17
114_pomper_saffran_2016_42,6,tape,42,114,tape,distractor,71,29,0.71,NA,1,1,NA,640,1,1183.3333333333335,1183.3333333333335,2366.666666666667,17
114_pomper_saffran_2016_42,7,dress,42,114,dress,distractor,85,19,0.8173076923076923,NA,1,1,NA,540,1,1416.6666666666667,1416.6666666666667,2833.3333333333335,17
114_pomper_saffran_2016_42,8,pudding,42,114,pudding,distractor,78,25,0.7572815533980582,NA,1,1,NA,715,1,1300,1300,2600,17
115_pomper_saffran_2016_42,2,sock,42,115,sock,distractor,39,60,0.3939393939393939,NA,1,1,NA,1040,2,650,650,1300,17
115_pomper_saffran_2016_42,3,hose,42,115,hose,distractor,102,1,0.9902912621359223,NA,1,1,NA,115,0,1700.0000000000002,1700.0000000000002,3400.0000000000005,17
115_pomper_saffran_2016_42,7,necklace,42,115,necklace,distractor,36,59,0.37894736842105264,NA,1,1,NA,615,2,600,600,1200,17
116_pomper_saffran_2016_45,9,crib,45,116,crib,distractor,93,8,0.9207920792079208,NA,1,1,NA,340,0,1550,1550,3100,20
116_pomper_saffran_2016_45,11,hammer,45,116,hammer,distractor,73,31,0.7019230769230769,NA,1,1,NA,840,1,1216.6666666666667,1216.6666666666667,2433.3333333333335,20
116_pomper_saffran_2016_45,12,ladder,45,116,ladder,distractor,101,3,0.9711538461538461,NA,1,1,NA,140,0,1683.3333333333335,1683.3333333333335,3366.666666666667,20
116_pomper_saffran_2016_45,15,glasses,45,116,glasses,distractor,65,36,0.6435643564356436,NA,1,1,NA,1040,1,1083.3333333333335,1083.3333333333335,2166.666666666667,20
117_pomper_saffran_2016_43,1,shorts,43,117,shorts,distractor,68,34,0.6666666666666666,NA,1,1,NA,340,2,1133.3333333333335,1133.3333333333335,2266.666666666667,18
117_pomper_saffran_2016_43,2,purse,43,117,purse,distractor,45,54,0.45454545454545453,NA,2,1,NA,790,3,375,533.3333333333334,1066.6666666666667,18
117_pomper_saffran_2016_43,4,lamp,43,117,lamp,distractor,25,39,0.390625,NA,1,1,NA,740,2,383.33333333333337,383.33333333333337,766.6666666666667,18
117_pomper_saffran_2016_43,5,can,43,117,can,distractor,71,31,0.696078431372549,NA,1,1,NA,890,1,1183.3333333333335,1183.3333333333335,2366.666666666667,18
117_pomper_saffran_2016_43,7,muffin,43,117,muffin,distractor,44,15,0.7457627118644068,NA,1,1,NA,440,1,733.3333333333334,733.3333333333334,1466.6666666666667,18
117_pomper_saffran_2016_43,8,plate,43,117,plate,distractor,90,13,0.8737864077669902,NA,1,1,NA,415,1,1500,1500,3000,18
118_pomper_saffran_2016_42,1,crib,42,118,crib,distractor,62,41,0.6019417475728155,NA,1,1,NA,1115,1,1033.3333333333335,1033.3333333333335,2066.666666666667,17
118_pomper_saffran_2016_42,3,hammer,42,118,hammer,distractor,63,4,0.9402985074626866,NA,1,1,NA,140,0,1050,1050,2100,17
118_pomper_saffran_2016_42,4,ladder,42,118,ladder,distractor,65,30,0.6842105263157895,NA,1,1,NA,390,1,1066.6666666666667,1066.6666666666667,2133.3333333333335,17
118_pomper_saffran_2016_42,5,slipper,42,118,slipper,distractor,101,3,0.9711538461538461,NA,1,1,NA,140,0,1683.3333333333335,1683.3333333333335,3366.666666666667,17
118_pomper_saffran_2016_42,7,glasses,42,118,glasses,distractor,103,0,1,NA,1,1,NA,90,0,1716.6666666666667,1716.6666666666667,3433.3333333333335,17
119_pomper_saffran_2016_43,14,purse,43,119,purse,distractor,83,20,0.8058252427184466,NA,1,1,NA,590,1,1383.3333333333335,1383.3333333333335,2766.666666666667,18
119_pomper_saffran_2016_43,15,bucket,43,119,bucket,distractor,60,39,0.6060606060606061,NA,1,1,NA,115,1,1000.0000000000001,1000.0000000000001,2000.0000000000002,18
119_pomper_saffran_2016_43,16,shovel,43,119,shovel,distractor,81,23,0.7788461538461539,NA,1,1,NA,640,1,1350,1350,2700,18
120_pomper_saffran_2016_42,2,tape,42,120,tape,distractor,31,48,0.3924050632911392,NA,1,1,NA,815,2,516.6666666666667,516.6666666666667,1033.3333333333335,17
120_pomper_saffran_2016_42,5,ladder,42,120,ladder,distractor,93,11,0.8942307692307693,NA,1,1,NA,340,0,1550,1550,3100,17
120_pomper_saffran_2016_42,6,crib,42,120,crib,distractor,66,29,0.6947368421052632,NA,1,1,NA,790,1,1100,1100,2200,17
121_pomper_saffran_2016_42,10,knife,42,121,knife,distractor,79,24,0.7669902912621359,NA,1,1,NA,690,1,1316.6666666666667,1316.6666666666667,2633.3333333333335,17
121_pomper_saffran_2016_42,11,zipper,42,121,zipper,distractor,70,33,0.6796116504854369,NA,1,1,NA,915,1,1166.6666666666667,1166.6666666666667,2333.3333333333335,17
121_pomper_saffran_2016_42,14,tape,42,121,tape,distractor,42,52,0.44680851063829785,NA,2,1,NA,340,2,350.00000000000006,450.00000000000006,900.0000000000001,17
122_pomper_saffran_2016_44,10,necklace,44,122,necklace,distractor,81,21,0.7941176470588235,NA,1,1,NA,640,1,1350,1350,2700,19
122_pomper_saffran_2016_44,12,scissors,44,122,scissors,distractor,74,29,0.7184466019417476,NA,1,1,NA,815,1,1233.3333333333335,1233.3333333333335,2466.666666666667,19
122_pomper_saffran_2016_44,13,glove,44,122,glove,distractor,90,12,0.8823529411764706,NA,1,1,NA,415,1,1500,1500,3000,19
122_pomper_saffran_2016_44,16,hose,44,122,hose,distractor,97,7,0.9326923076923077,NA,1,1,NA,240,0,1616.6666666666667,1616.6666666666667,3233.3333333333335,19
123_pomper_saffran_2016_43,1,pudding,43,123,pudding,distractor,77,17,0.8191489361702128,NA,2,1,NA,140,2,641.6666666666666,1050,2100,18
123_pomper_saffran_2016_43,3,slipper,43,123,slipper,distractor,40,50,0.4444444444444444,NA,1,1,NA,1040,2,583.3333333333334,583.3333333333334,1166.6666666666667,18
123_pomper_saffran_2016_43,5,flag,43,123,flag,distractor,39,62,0.38613861386138615,NA,1,1,NA,515,2,650,650,1300,18
123_pomper_saffran_2016_43,6,slide,43,123,slide,distractor,86,17,0.8349514563106796,NA,1,1,NA,515,1,1433.3333333333335,1433.3333333333335,2866.666666666667,18
123_pomper_saffran_2016_43,7,zipper,43,123,zipper,distractor,77,25,0.7549019607843137,NA,1,1,NA,740,1,1283.3333333333335,1283.3333333333335,2566.666666666667,18
124_pomper_saffran_2016_42,9,chalk,42,124,chalk,distractor,55,41,0.5729166666666666,NA,2,1,NA,915,1,458.33333333333337,216.66666666666669,1400,17
124_pomper_saffran_2016_42,10,tape,42,124,tape,distractor,69,25,0.7340425531914894,NA,2,1,NA,515,1,575,200,1900.0000000000002,17
124_pomper_saffran_2016_42,12,glasses,42,124,glasses,distractor,89,15,0.8557692307692307,NA,1,1,NA,440,1,1483.3333333333335,1483.3333333333335,2966.666666666667,17
124_pomper_saffran_2016_42,14,crib,42,124,crib,distractor,87,16,0.8446601941747572,NA,1,1,NA,490,1,1450,1450,2900,17
124_pomper_saffran_2016_42,15,hammer,42,124,hammer,distractor,105,0,1,NA,1,1,NA,40,0,1750.0000000000002,1750.0000000000002,3500.0000000000005,17
124_pomper_saffran_2016_42,16,boot,42,124,boot,distractor,95,8,0.9223300970873787,NA,1,1,NA,290,0,1583.3333333333335,1583.3333333333335,3166.666666666667,17
125_pomper_saffran_2016_43,2,muffin,43,125,muffin,distractor,93,11,0.8942307692307693,NA,1,1,NA,340,0,1550,1550,3100,18
125_pomper_saffran_2016_43,3,comb,43,125,comb,distractor,46,57,0.44660194174757284,NA,1,0,NA,NA,1,766.6666666666667,766.6666666666667,1533.3333333333335,18
125_pomper_saffran_2016_43,5,lamp,43,125,lamp,distractor,59,34,0.6344086021505376,NA,2,1,NA,240,2,491.66666666666674,266.6666666666667,1433.3333333333335,18
125_pomper_saffran_2016_43,6,purse,43,125,purse,distractor,85,17,0.8333333333333334,NA,1,1,NA,540,1,1416.6666666666667,1416.6666666666667,2833.3333333333335,18
125_pomper_saffran_2016_43,8,shovel,43,125,shovel,distractor,105,0,1,NA,1,1,NA,40,0,1750.0000000000002,1750.0000000000002,3500.0000000000005,18
126_pomper_saffran_2016_44,10,puzzle,44,126,puzzle,distractor,102,0,1,NA,1,1,NA,115,0,1700.0000000000002,1700.0000000000002,3400.0000000000005,19
126_pomper_saffran_2016_44,11,slipper,44,126,slipper,distractor,79,24,0.7669902912621359,NA,1,1,NA,690,1,1316.6666666666667,1316.6666666666667,2633.3333333333335,19
126_pomper_saffran_2016_44,12,dress,44,126,dress,distractor,102,1,0.9902912621359223,NA,1,1,NA,115,0,1700.0000000000002,1700.0000000000002,3400.0000000000005,19
