recording_name,trial_number,target_word,age_months,subject_id,media_name,initial_look,samples_target,samples_distractor,prop_looking,prop_looking_diff,number_fixations,correct_shift,remain_on_target,latency_to_switch,total_aoi_switches,duration_of_look,first_look_dur,longest_look_by_trial,age_months_centred
0_casillas_tseltal_2015_14,1,wa,14,0,tortilla,distractor,0,106,0,NA,NA,0,NA,NA,0,NA,NA,NA,-11
0_casillas_tseltal_2015_14,2,moch,14,0,basket-tseltal,distractor,0,106,0,NA,NA,0,NA,NA,0,NA,NA,NA,-11
0_casillas_tseltal_2015_14,3,pelota,14,0,ball,distractor,0,106,0,NA,NA,0,NA,NA,0,NA,NA,NA,-11
0_casillas_tseltal_2015_14,4,chojak',14,0,purse-tseltal,distractor,0,106,0,NA,NA,0,NA,NA,0,NA,NA,NA,-11
0_casillas_tseltal_2015_14,5,baso,14,0,cup,distractor,27,76,0.2621359223300971,NA,1,1,NA,490,2,450.00000000000006,450.00000000000006,1080,-11
0_casillas_tseltal_2015_14,6,nichim,14,0,flower,target,106,0,1,NA,1,NA,1,NA,0,1766.6666666666667,1766.6666666666667,4240,-11
0_casillas_tseltal_2015_14,7,balti,14,0,bucket,distractor,15,86,0.1485148514851485,NA,1,0,NA,NA,1,250.00000000000003,250.00000000000003,600,-11
0_casillas_tseltal_2015_14,8,mut,14,0,chicken,target,106,0,1,NA,1,NA,1,NA,0,1766.6666666666667,1766.6666666666667,4240,-11
0_casillas_tseltal_2015_14,9,k'ajk',14,0,fire,target,13,93,0.12264150943396226,NA,1,NA,0,NA,1,216.66666666666669,216.66666666666669,520,-11
0_casillas_tseltal_2015_14,10,mexa,14,0,table,target,106,0,1,NA,1,NA,1,NA,0,1766.6666666666667,1766.6666666666667,4240,-11
0_casillas_tseltal_2015_14,11,xawin,14,0,cat,distractor,0,106,0,NA,NA,0,NA,NA,0,NA,NA,NA,-11
0_casillas_tseltal_2015_14,12,ja',14,0,water,distractor,96,8,0.9230769230769231,NA,1,1,NA,215,0,1600,1600,3840,-11
0_casillas_tseltal_2015_14,13,ixim,14,0,corn,target,96,8,0.9230769230769231,NA,2,NA,0,NA,0,800,666.6666666666667,2240,-11
0_casillas_tseltal_2015_14,14,karo,14,0,car,target,106,0,1,NA,1,NA,1,NA,0,1766.6666666666667,1766.6666666666667,4240,-11
0_casillas_tseltal_2015_14,15,na,14,0,house,distractor,0,106,0,NA,NA,0,NA,NA,0,NA,NA,NA,-11
0_casillas_tseltal_2015_14,16,te,14,0,tree,target,16,88,0.15384615384615385,NA,1,NA,0,NA,1,266.6666666666667,266.6666666666667,640,-11
0_casillas_tseltal_2015_14,17,waybal,14,0,bed,target,106,0,1,NA,1,NA,1,NA,0,1766.6666666666667,1766.6666666666667,4240,-11
0_casillas_tseltal_2015_14,18,t'inel,14,0,doorway,distractor,22,80,0.21568627450980393,NA,1,1,NA,615,2,366.6666666666667,366.6666666666667,880,-11
0_casillas_tseltal_2015_14,19,lo'bal,14,0,banana,target,35,69,0.33653846153846156,NA,1,NA,0,NA,1,583.3333333333334,583.3333333333334,1400,-11
0_casillas_tseltal_2015_14,20,chenek',14,0,bean,target,70,34,0.6730769230769231,NA,1,NA,1,NA,1,1166.6666666666667,1166.6666666666667,2800,-11
0_casillas_tseltal_2015_14,21,tz'i,14,0,dog,distractor,0,106,0,NA,NA,0,NA,NA,0,NA,NA,NA,-11
0_casillas_tseltal_2015_14,22,tomut,14,0,egg,distractor,0,106,0,NA,NA,0,NA,NA,0,NA,NA,NA,-11
0_casillas_tseltal_2015_14,23,p'in,14,0,pot-tseltal,target,106,0,1,NA,1,NA,1,NA,0,1766.6666666666667,1766.6666666666667,4240,-11
0_casillas_tseltal_2015_14,24,tzek',14,0,skirt-tseltal,target,106,0,1,NA,1,NA,1,NA,0,1766.6666666666667,1766.6666666666667,4240,-11
0_casillas_tseltal_2015_14,25,ich,14,0,chile,target,38,66,0.36538461538461536,NA,1,NA,0,NA,1,633.3333333333334,633.3333333333334,1520,-11
0_casillas_tseltal_2015_14,26,xila,14,0,chair,target,40,64,0.38461538461538464,NA,1,NA,0,NA,1,666.6666666666667,666.6666666666667,1600,-11
0_casillas_tseltal_2015_14,27,mes,14,0,broom,distractor,0,106,0,NA,NA,0,NA,NA,0,NA,NA,NA,-11
0_casillas_tseltal_2015_14,28,machit,14,0,machete,distractor,0,106,0,NA,NA,0,NA,NA,0,NA,NA,NA,-11
0_casillas_tseltal_2015_14,29,si',14,0,firewood,distractor,69,35,0.6634615384615384,NA,1,1,NA,940,1,1150,1150,2760,-11
1_casillas_tseltal_2015_22,1,wa,22,1,tortilla,target,70,35,0.6666666666666666,NA,2,NA,0,NA,2,583.3333333333334,300,2080,-3
1_casillas_tseltal_2015_22,2,moch,22,1,basket-tseltal,distractor,35,66,0.3465346534653465,NA,1,1,NA,415,2,583.3333333333334,583.3333333333334,1400,-3
1_casillas_tseltal_2015_22,3,pelota,22,1,ball,target,106,0,1,NA,1,NA,1,NA,0,1766.6666666666667,1766.6666666666667,4240,-3
1_casillas_tseltal_2015_22,4,chojak',22,1,purse-tseltal,target,27,76,0.2621359223300971,NA,1,NA,0,NA,1,450.00000000000006,450.00000000000006,1080,-3
1_casillas_tseltal_2015_22,5,baso,22,1,cup,distractor,70,32,0.6862745098039216,NA,1,1,NA,540,2,1166.6666666666667,1166.6666666666667,2800,-3
1_casillas_tseltal_2015_22,6,nichim,22,1,flower,target,64,40,0.6153846153846154,NA,1,NA,1,NA,1,1066.6666666666667,1066.6666666666667,2560,-3
1_casillas_tseltal_2015_22,7,balti,22,1,bucket,distractor,5,98,0.04854368932038835,NA,NA,0,NA,NA,0,NA,NA,NA,-3
1_casillas_tseltal_2015_22,8,mut,22,1,chicken,distractor,48,54,0.47058823529411764,NA,1,0,NA,NA,1,800,800,1920,-3
1_casillas_tseltal_2015_22,9,k'ajk',22,1,fire,target,106,0,1,NA,1,NA,1,NA,0,1766.6666666666667,1766.6666666666667,4240,-3
1_casillas_tseltal_2015_22,10,mexa,22,1,table,neither,56,0,1,NA,1,NA,NA,NA,0,933.3333333333334,933.3333333333334,2240,-3
1_casillas_tseltal_2015_22,11,xawin,22,1,cat,distractor,61,42,0.5922330097087378,NA,1,1,NA,1140,1,1016.6666666666667,1016.6666666666667,2440,-3
1_casillas_tseltal_2015_22,12,ja',22,1,water,distractor,58,46,0.5576923076923077,NA,1,1,NA,1215,1,966.6666666666667,966.6666666666667,2320,-3
1_casillas_tseltal_2015_22,13,ixim,22,1,corn,distractor,79,24,0.7669902912621359,NA,1,1,NA,690,1,1316.6666666666667,1316.6666666666667,3160,-3
1_casillas_tseltal_2015_22,14,karo,22,1,car,target,77,24,0.7623762376237624,NA,2,NA,0,NA,2,641.6666666666667,400,2120,-3
1_casillas_tseltal_2015_22,15,na,22,1,house,distractor,0,106,0,NA,NA,0,NA,NA,0,NA,NA,NA,-3
1_casillas_tseltal_2015_22,16,te,22,1,tree,distractor,0,106,0,NA,NA,0,NA,NA,0,NA,NA,NA,-3
1_casillas_tseltal_2015_22,17,waybal,22,1,bed,distractor,46,52,0.46938775510204084,NA,2,1,NA,465,4,383.33333333333337,500.00000000000006,1200,-3
1_casillas_tseltal_2015_22,18,t'inel,22,1,doorway,distractor,52,53,0.49523809523809526,NA,1,1,NA,1365,1,866.6666666666667,866.6666666666667,2080,-3
1_casillas_tseltal_2015_22,19,lo'bal,22,1,banana,target,106,0,1,NA,1,NA,1,NA,0,1766.6666666666667,1766.6666666666667,4240,-3
1_casillas_tseltal_2015_22,20,chenek',22,1,bean,distractor,0,106,0,NA,NA,0,NA,NA,0,NA,NA,NA,-3
1_casillas_tseltal_2015_22,21,tz'i,22,1,dog,target,106,0,1,NA,1,NA,1,NA,0,1766.6666666666667,1766.6666666666667,4240,-3
1_casillas_tseltal_2015_22,22,tomut,22,1,egg,distractor,0,106,0,NA,NA,0,NA,NA,0,NA,NA,NA,-3
1_casillas_tseltal_2015_22,23,p'in,22,1,pot-tseltal,target,41,58,0.41414141414141414,NA,1,NA,0,NA,1,516.6666666666667,516.6666666666667,1240,-3
1_casillas_tseltal_2015_22,24,tzek',22,1,skirt-tseltal,target,106,0,1,NA,1,NA,1,NA,0,1766.6666666666667,1766.6666666666667,4240,-3
1_casillas_tseltal_2015_22,25,ich,22,1,chile,distractor,63,42,0.6,NA,1,1,NA,1090,1,1050,1050,2520,-3
1_casillas_tseltal_2015_22,26,xila,22,1,chair,distractor,53,50,0.5145631067961165,NA,1,1,NA,1340,1,883.3333333333334,883.3333333333334,2120,-3
1_casillas_tseltal_2015_22,27,mes,22,1,broom,target,40,64,0.38461538461538464,NA,1,NA,0,NA,1,666.6666666666667,666.6666666666667,1600,-3
1_casillas_tseltal_2015_22,28,machit,22,1,machete,distractor,63,40,0.6116504854368932,NA,1,1,NA,1090,1,1050,1050,2520,-3
1_casillas_tseltal_2015_22,29,si',22,1,firewood,distractor,26,77,0.2524271844660194,NA,1,0,NA,NA,1,433.33333333333337,433.33333333333337,1040,-3
1_casillas_tseltal_2015_22,30,bojch,22,1,bowl-tseltal,distractor,77,26,0.7475728155339806,NA,1,1,NA,740,1,1283.3333333333335,1283.3333333333335,3080,-3
2_casillas_tseltal_2015_45,1,wa,45,2,tortilla,target,37,55,0.40217391304347827,NA,1,NA,0,NA,3,266.6666666666667,266.6666666666667,640,20
2_casillas_tseltal_2015_45,2,moch,45,2,basket-tseltal,distractor,59,42,0.5841584158415841,NA,1,1,NA,690,2,983.3333333333334,983.3333333333334,2360,20
2_casillas_tseltal_2015_45,3,pelota,45,2,ball,target,74,17,0.8131868131868132,NA,2,NA,1,NA,2,616.6666666666667,933.3333333333334,2240,20
2_casillas_tseltal_2015_45,4,chojak',45,2,purse-tseltal,distractor,47,47,0.5,NA,1,1,NA,565,2,783.3333333333334,783.3333333333334,1880,20
2_casillas_tseltal_2015_45,5,baso,45,2,cup,distractor,70,26,0.7291666666666666,NA,1,1,NA,140,1,1033.3333333333335,1033.3333333333335,2480,20
2_casillas_tseltal_2015_45,6,nichim,45,2,flower,target,85,17,0.8333333333333334,NA,2,NA,1,NA,2,708.3333333333335,900.0000000000001,2160,20
2_casillas_tseltal_2015_45,7,balti,45,2,bucket,distractor,51,48,0.5151515151515151,NA,1,1,NA,290,1,850.0000000000001,850.0000000000001,2040,20
2_casillas_tseltal_2015_45,8,mut,45,2,chicken,target,62,38,0.62,NA,2,NA,0,NA,2,516.6666666666667,633.3333333333334,1520,20
2_casillas_tseltal_2015_45,9,k'ajk',45,2,fire,distractor,68,34,0.6666666666666666,NA,1,1,NA,165,1,1133.3333333333335,1133.3333333333335,2720,20
2_casillas_tseltal_2015_45,10,mexa,45,2,table,target,82,16,0.8367346938775511,NA,1,NA,0,NA,0,1366.6666666666667,1366.6666666666667,3280,20
2_casillas_tseltal_2015_45,11,xawin,45,2,cat,target,46,50,0.4791666666666667,NA,2,NA,0,NA,2,383.33333333333337,416.6666666666667,1000,20
2_casillas_tseltal_2015_45,12,ja',45,2,water,target,44,60,0.4230769230769231,NA,2,NA,0,NA,3,366.6666666666667,300,1040,20
2_casillas_tseltal_2015_45,13,ixim,45,2,corn,distractor,59,39,0.6020408163265306,NA,2,1,NA,415,3,491.6666666666667,750,1800,20
2_casillas_tseltal_2015_45,14,karo,45,2,car,target,75,24,0.7575757575757576,NA,1,NA,1,NA,1,1116.6666666666667,1116.6666666666667,2680,20
2_casillas_tseltal_2015_45,15,na,45,2,house,target,106,0,1,NA,1,NA,1,NA,0,1766.6666666666667,1766.6666666666667,4240,20
2_casillas_tseltal_2015_45,16,te,45,2,tree,distractor,61,31,0.6630434782608695,NA,1,1,NA,290,1,1016.6666666666667,1016.6666666666667,2440,20
2_casillas_tseltal_2015_45,17,waybal,45,2,bed,target,106,0,1,NA,1,NA,1,NA,0,1766.6666666666667,1766.6666666666667,4240,20
2_casillas_tseltal_2015_45,18,t'inel,45,2,doorway,target,78,24,0.7647058823529411,NA,2,NA,1,NA,2,650,1100,2640,20
2_casillas_tseltal_2015_45,19,lo'bal,45,2,banana,distractor,63,10,0.863013698630137,NA,1,1,NA,765,0,1050,1050,2520,20
2_casillas_tseltal_2015_45,20,chenek',45,2,bean,target,91,13,0.875,NA,1,NA,0,NA,1,1333.3333333333335,1333.3333333333335,3200,20
2_casillas_tseltal_2015_45,21,tz'i,45,2,dog,target,56,45,0.5544554455445545,NA,2,NA,0,NA,2,466.66666666666674,366.6666666666667,1360,20
2_casillas_tseltal_2015_45,22,tomut,45,2,egg,distractor,37,53,0.4111111111111111,NA,1,1,NA,65,1,450.00000000000006,450.00000000000006,1080,20
2_casillas_tseltal_2015_45,23,p'in,45,2,pot-tseltal,target,94,10,0.9038461538461539,NA,1,NA,1,NA,0,1566.6666666666667,1566.6666666666667,3760,20
2_casillas_tseltal_2015_45,24,tzek',45,2,skirt-tseltal,target,64,36,0.64,NA,1,NA,0,NA,2,1066.6666666666667,1066.6666666666667,2560,20
2_casillas_tseltal_2015_45,25,ich,45,2,chile,distractor,86,14,0.86,NA,1,1,NA,340,0,1433.3333333333335,1433.3333333333335,3440,20
2_casillas_tseltal_2015_45,26,xila,45,2,chair,distractor,69,32,0.6831683168316832,NA,1,1,NA,290,1,1150,1150,2760,20
2_casillas_tseltal_2015_45,27,mes,45,2,broom,target,50,49,0.5050505050505051,NA,2,NA,0,NA,2,416.66666666666674,316.6666666666667,1240,20
2_casillas_tseltal_2015_45,28,machit,45,2,machete,target,94,10,0.9038461538461539,NA,1,NA,1,NA,0,1566.6666666666667,1566.6666666666667,3760,20
2_casillas_tseltal_2015_45,29,si',45,2,firewood,distractor,104,0,1,NA,1,1,NA,65,0,1733.3333333333335,1733.3333333333335,4160,20
2_casillas_tseltal_2015_45,30,bojch,45,2,bowl-tseltal,distractor,74,30,0.7115384615384616,NA,1,1,NA,215,1,1233.3333333333335,1233.3333333333335,2960,20
3_casillas_tseltal_2015_22,1,wa,22,3,tortilla,distractor,11,84,0.11578947368421053,NA,NA,0,NA,NA,0,NA,NA,NA,-3
3_casillas_tseltal_2015_22,2,moch,22,3,basket-tseltal,target,106,0,1,NA,1,NA,1,NA,0,1766.6666666666667,1766.6666666666667,4240,-3
3_casillas_tseltal_2015_22,3,pelota,22,3,ball,target,74,28,0.7254901960784313,NA,2,NA,0,NA,2,616.6666666666667,533.3333333333334,1680,-3
3_casillas_tseltal_2015_22,4,chojak',22,3,purse-tseltal,distractor,0,106,0,NA,NA,0,NA,NA,0,NA,NA,NA,-3
3_casillas_tseltal_2015_22,5,baso,22,3,cup,distractor,88,16,0.8461538461538461,NA,1,1,NA,465,1,1466.6666666666667,1466.6666666666667,3520,-3
3_casillas_tseltal_2015_22,6,nichim,22,3,flower,target,89,11,0.89,NA,2,NA,0,NA,0,741.6666666666667,566.6666666666667,2200,-3
3_casillas_tseltal_2015_22,7,balti,22,3,bucket,distractor,50,34,0.5952380952380952,NA,1,1,NA,890,1,833.3333333333334,833.3333333333334,2000,-3
3_casillas_tseltal_2015_22,8,mut,22,3,chicken,target,106,0,1,NA,1,NA,1,NA,0,1766.6666666666667,1766.6666666666667,4240,-3
3_casillas_tseltal_2015_22,9,k'ajk',22,3,fire,target,10,93,0.0970873786407767,NA,NA,NA,0,NA,0,NA,NA,NA,-3
3_casillas_tseltal_2015_22,10,mexa,22,3,table,target,106,0,1,NA,1,NA,1,NA,0,1766.6666666666667,1766.6666666666667,4240,-3
3_casillas_tseltal_2015_22,11,xawin,22,3,cat,distractor,34,69,0.3300970873786408,NA,1,0,NA,NA,1,566.6666666666667,566.6666666666667,1360,-3
3_casillas_tseltal_2015_22,12,ja',22,3,water,target,98,0,1,NA,2,NA,1,NA,0,816.6666666666667,833.3333333333334,2000,-3
3_casillas_tseltal_2015_22,13,ixim,22,3,corn,distractor,61,43,0.5865384615384616,NA,1,1,NA,1140,1,1016.6666666666667,1016.6666666666667,2440,-3
3_casillas_tseltal_2015_22,14,karo,22,3,car,target,106,0,1,NA,1,NA,1,NA,0,1766.6666666666667,1766.6666666666667,4240,-3
3_casillas_tseltal_2015_22,15,na,22,3,house,distractor,0,106,0,NA,NA,0,NA,NA,0,NA,NA,NA,-3
3_casillas_tseltal_2015_22,16,te,22,3,tree,distractor,0,106,0,NA,NA,0,NA,NA,0,NA,NA,NA,-3
3_casillas_tseltal_2015_22,17,waybal,22,3,bed,distractor,63,39,0.6176470588235294,NA,1,1,NA,490,2,1050,1050,2520,-3
3_casillas_tseltal_2015_22,19,lo'bal,22,3,banana,distractor,22,80,0.21568627450980393,NA,1,0,NA,NA,1,366.6666666666667,366.6666666666667,880,-3
3_casillas_tseltal_2015_22,20,chenek',22,3,bean,distractor,87,18,0.8285714285714286,NA,1,1,NA,490,1,1450,1450,3480,-3
3_casillas_tseltal_2015_22,21,tz'i,22,3,dog,distractor,39,66,0.37142857142857144,NA,1,0,NA,NA,1,650,650,1560,-3
3_casillas_tseltal_2015_22,22,tomut,22,3,egg,target,24,73,0.24742268041237114,NA,1,NA,0,NA,2,266.6666666666667,266.6666666666667,640,-3
3_casillas_tseltal_2015_22,23,p'in,22,3,pot-tseltal,distractor,36,66,0.35294117647058826,NA,1,0,NA,NA,1,600,600,1440,-3
3_casillas_tseltal_2015_22,24,tzek',22,3,skirt-tseltal,distractor,4,99,0.038834951456310676,NA,NA,0,NA,NA,0,NA,NA,NA,-3
3_casillas_tseltal_2015_22,25,ich,22,3,chile,target,106,0,1,NA,1,NA,1,NA,0,1766.6666666666667,1766.6666666666667,4240,-3
3_casillas_tseltal_2015_22,26,xila,22,3,chair,target,106,0,1,NA,1,NA,1,NA,0,1766.6666666666667,1766.6666666666667,4240,-3
3_casillas_tseltal_2015_22,27,mes,22,3,broom,distractor,88,2,0.9777777777777777,NA,1,1,NA,465,0,1466.6666666666667,1466.6666666666667,3520,-3
3_casillas_tseltal_2015_22,28,machit,22,3,machete,distractor,15,90,0.14285714285714285,NA,1,0,NA,NA,1,250.00000000000003,250.00000000000003,600,-3
3_casillas_tseltal_2015_22,30,bojch,22,3,bowl-tseltal,target,68,35,0.6601941747572816,NA,2,NA,0,NA,3,566.6666666666667,266.6666666666667,2080,-3
4_casillas_tseltal_2015_45,1,wa,45,4,tortilla,distractor,0,106,0,NA,NA,0,NA,NA,0,NA,NA,NA,20
4_casillas_tseltal_2015_45,2,moch,45,4,basket-tseltal,distractor,84,21,0.8,NA,1,1,NA,565,1,1400,1400,3360,20
4_casillas_tseltal_2015_45,3,pelota,45,4,ball,target,37,61,0.37755102040816324,NA,2,NA,0,NA,1,308.33333333333337,316.6666666666667,760,20
4_casillas_tseltal_2015_45,4,chojak',45,4,purse-tseltal,distractor,29,71,0.29,NA,1,1,NA,365,1,483.33333333333337,483.33333333333337,1160,20
4_casillas_tseltal_2015_45,5,baso,45,4,cup,distractor,98,6,0.9423076923076923,NA,1,1,NA,215,0,1633.3333333333335,1633.3333333333335,3920,20
4_casillas_tseltal_2015_45,6,nichim,45,4,flower,target,70,29,0.7070707070707071,NA,2,NA,0,NA,3,583.3333333333334,233.33333333333334,2240,20
4_casillas_tseltal_2015_45,7,balti,45,4,bucket,distractor,56,47,0.5436893203883495,NA,1,1,NA,340,1,933.3333333333334,933.3333333333334,2240,20
4_casillas_tseltal_2015_45,8,mut,45,4,chicken,distractor,53,38,0.5824175824175825,NA,2,1,NA,540,2,441.66666666666674,266.6666666666667,1480,20
4_casillas_tseltal_2015_45,9,k'ajk',45,4,fire,distractor,67,29,0.6979166666666666,NA,1,1,NA,290,1,1116.6666666666667,1116.6666666666667,2680,20
4_casillas_tseltal_2015_45,10,mexa,45,4,table,distractor,101,3,0.9711538461538461,NA,1,1,NA,140,0,1683.3333333333335,1683.3333333333335,4040,20
4_casillas_tseltal_2015_45,11,xawin,45,4,cat,distractor,44,58,0.43137254901960786,NA,1,1,NA,265,1,733.3333333333334,733.3333333333334,1760,20
4_casillas_tseltal_2015_45,12,ja',45,4,water,target,42,63,0.4,NA,1,NA,0,NA,1,700,700,1680,20
4_casillas_tseltal_2015_45,14,karo,45,4,car,target,90,0,1,NA,1,NA,1,NA,0,1416.6666666666667,1416.6666666666667,3400,20
4_casillas_tseltal_2015_45,15,na,45,4,house,target,87,10,0.8969072164948454,NA,1,NA,0,NA,0,1200,1200,2880,20
4_casillas_tseltal_2015_45,16,te,45,4,tree,distractor,65,24,0.7303370786516854,NA,1,1,NA,665,1,1083.3333333333335,1083.3333333333335,2600,20
4_casillas_tseltal_2015_45,17,waybal,45,4,bed,distractor,85,19,0.8173076923076923,NA,1,1,NA,540,1,1416.6666666666667,1416.6666666666667,3400,20
4_casillas_tseltal_2015_45,18,t'inel,45,4,doorway,distractor,11,90,0.10891089108910891,NA,NA,1,NA,865,0,NA,NA,NA,20
4_casillas_tseltal_2015_45,19,lo'bal,45,4,banana,distractor,76,24,0.76,NA,2,1,NA,490,1,633.3333333333334,833.3333333333334,2000,20
4_casillas_tseltal_2015_45,20,chenek',45,4,bean,distractor,51,50,0.504950495049505,NA,1,1,NA,415,2,850.0000000000001,850.0000000000001,2040,20
4_casillas_tseltal_2015_45,21,tz'i,45,4,dog,target,70,30,0.7,NA,2,NA,0,NA,2,583.3333333333334,766.6666666666667,1840,20
4_casillas_tseltal_2015_45,22,tomut,45,4,egg,distractor,72,31,0.6990291262135923,NA,1,1,NA,165,1,1200,1200,2880,20
4_casillas_tseltal_2015_45,23,p'in,45,4,pot-tseltal,distractor,68,30,0.6938775510204082,NA,2,1,NA,415,3,566.6666666666667,800,1920,20
4_casillas_tseltal_2015_45,24,tzek',45,4,skirt-tseltal,distractor,64,37,0.6336633663366337,NA,1,1,NA,665,2,1066.6666666666667,1066.6666666666667,2560,20
4_casillas_tseltal_2015_45,25,ich,45,4,chile,target,83,21,0.7980769230769231,NA,1,NA,1,NA,1,1383.3333333333335,1383.3333333333335,3320,20
4_casillas_tseltal_2015_45,26,xila,45,4,chair,target,32,72,0.3076923076923077,NA,1,NA,0,NA,1,533.3333333333334,533.3333333333334,1280,20
4_casillas_tseltal_2015_45,27,mes,45,4,broom,distractor,72,31,0.6990291262135923,NA,1,1,NA,365,2,1200,1200,2880,20
4_casillas_tseltal_2015_45,28,machit,45,4,machete,target,22,82,0.21153846153846154,NA,1,NA,0,NA,1,366.6666666666667,366.6666666666667,880,20
4_casillas_tseltal_2015_45,29,si',45,4,firewood,target,96,8,0.9230769230769231,NA,1,NA,1,NA,0,1600,1600,3840,20
4_casillas_tseltal_2015_45,30,bojch,45,4,bowl-tseltal,distractor,78,22,0.78,NA,1,1,NA,615,1,1300,1300,3120,20
5_casillas_tseltal_2015_27,1,wa,27,5,tortilla,target,106,0,1,NA,1,NA,1,NA,0,1766.6666666666667,1766.6666666666667,4240,2
5_casillas_tseltal_2015_27,2,moch,27,5,basket-tseltal,target,50,53,0.4854368932038835,NA,2,NA,0,NA,2,416.66666666666674,616.6666666666667,1480,2
5_casillas_tseltal_2015_27,3,pelota,27,5,ball,target,106,0,1,NA,1,NA,1,NA,0,1766.6666666666667,1766.6666666666667,4240,2
5_casillas_tseltal_2015_27,4,chojak',27,5,purse-tseltal,distractor,21,81,0.20588235294117646,NA,1,1,NA,815,2,350,350,840,2
5_casillas_tseltal_2015_27,5,baso,27,5,cup,distractor,66,38,0.6346153846153846,NA,1,1,NA,490,2,1100,1100,2640,2
5_casillas_tseltal_2015_27,6,nichim,27,5,flower,target,79,24,0.7669902912621359,NA,2,NA,0,NA,2,658.3333333333334,716.6666666666667,1720,2
5_casillas_tseltal_2015_27,7,balti,27,5,bucket,distractor,89,15,0.8557692307692307,NA,2,1,NA,15,2,741.6666666666667,483.33333333333337,2400,2
5_casillas_tseltal_2015_27,8,mut,27,5,chicken,distractor,93,11,0.8942307692307693,NA,1,1,NA,340,0,1550,1550,3720,2
5_casillas_tseltal_2015_27,9,k'ajk',27,5,fire,distractor,66,29,0.6947368421052632,NA,2,1,NA,340,3,550,750,1800,2
5_casillas_tseltal_2015_27,10,mexa,27,5,table,distractor,61,40,0.6039603960396039,NA,1,1,NA,415,2,1016.6666666666667,1016.6666666666667,2440,2
5_casillas_tseltal_2015_27,11,xawin,27,5,cat,target,41,61,0.4019607843137255,NA,1,NA,0,NA,1,616.6666666666667,616.6666666666667,1480,2
5_casillas_tseltal_2015_27,12,ja',27,5,water,target,106,0,1,NA,1,NA,1,NA,0,1766.6666666666667,1766.6666666666667,4240,2
5_casillas_tseltal_2015_27,13,ixim,27,5,corn,target,26,76,0.2549019607843137,NA,1,NA,0,NA,1,433.33333333333337,433.33333333333337,1040,2
5_casillas_tseltal_2015_27,14,karo,27,5,car,target,82,23,0.780952380952381,NA,1,NA,1,NA,1,1366.6666666666667,1366.6666666666667,3280,2
5_casillas_tseltal_2015_27,15,na,27,5,house,target,53,52,0.5047619047619047,NA,1,NA,0,NA,1,883.3333333333334,883.3333333333334,2120,2
5_casillas_tseltal_2015_27,16,te,27,5,tree,distractor,0,106,0,NA,NA,0,NA,NA,0,NA,NA,NA,2
5_casillas_tseltal_2015_27,17,waybal,27,5,bed,target,37,68,0.3523809523809524,NA,1,NA,0,NA,1,616.6666666666667,616.6666666666667,1480,2
5_casillas_tseltal_2015_27,18,t'inel,27,5,doorway,distractor,26,72,0.2653061224489796,NA,1,1,NA,365,1,433.33333333333337,433.33333333333337,1040,2
5_casillas_tseltal_2015_27,19,lo'bal,27,5,banana,distractor,98,6,0.9423076923076923,NA,1,1,NA,215,0,1633.3333333333335,1633.3333333333335,3920,2
5_casillas_tseltal_2015_27,20,chenek',27,5,bean,distractor,39,66,0.37142857142857144,NA,1,0,NA,NA,1,650,650,1560,2
5_casillas_tseltal_2015_27,21,tz'i,27,5,dog,distractor,82,19,0.8118811881188119,NA,1,1,NA,215,1,1366.6666666666667,1366.6666666666667,3280,2
5_casillas_tseltal_2015_27,22,tomut,27,5,egg,distractor,40,63,0.3883495145631068,NA,1,1,NA,740,2,666.6666666666667,666.6666666666667,1600,2
5_casillas_tseltal_2015_27,23,p'in,27,5,pot-tseltal,target,20,82,0.19607843137254902,NA,1,NA,0,NA,1,266.6666666666667,266.6666666666667,640,2
5_casillas_tseltal_2015_27,24,tzek',27,5,skirt-tseltal,target,45,57,0.4411764705882353,NA,2,NA,0,NA,3,375,350,960,2
5_casillas_tseltal_2015_27,25,ich,27,5,chile,target,58,45,0.5631067961165048,NA,2,NA,0,NA,2,483.33333333333337,700,1680,2
5_casillas_tseltal_2015_27,26,xila,27,5,chair,distractor,34,62,0.3541666666666667,NA,1,0,NA,NA,1,566.6666666666667,566.6666666666667,1360,2
5_casillas_tseltal_2015_27,27,mes,27,5,broom,target,66,39,0.6285714285714286,NA,1,NA,1,NA,1,1100,1100,2640,2
5_casillas_tseltal_2015_27,28,machit,27,5,machete,distractor,12,90,0.11764705882352941,NA,NA,0,NA,NA,0,NA,NA,NA,2
5_casillas_tseltal_2015_27,29,si',27,5,firewood,target,46,41,0.5287356321839081,NA,2,NA,0,NA,2,383.33333333333337,500.00000000000006,1200,2
5_casillas_tseltal_2015_27,30,bojch,27,5,bowl-tseltal,distractor,20,74,0.2127659574468085,NA,1,1,NA,565,2,333.33333333333337,333.33333333333337,800,2
6_casillas_tseltal_2015_39,1,wa,39,6,tortilla,target,95,0,1,NA,1,NA,1,NA,0,1533.3333333333335,1533.3333333333335,3680,14
6_casillas_tseltal_2015_39,2,moch,39,6,basket-tseltal,target,103,0,1,NA,2,NA,1,NA,0,858.3333333333334,933.3333333333334,2240,14
6_casillas_tseltal_2015_39,3,pelota,39,6,ball,target,106,0,1,NA,1,NA,1,NA,0,1766.6666666666667,1766.6666666666667,4240,14
6_casillas_tseltal_2015_39,4,chojak',39,6,purse-tseltal,distractor,45,58,0.4368932038834951,NA,1,1,NA,615,2,750,750,1800,14
6_casillas_tseltal_2015_39,5,baso,39,6,cup,distractor,67,35,0.6568627450980392,NA,1,1,NA,540,2,1116.6666666666667,1116.6666666666667,2680,14
6_casillas_tseltal_2015_39,6,nichim,39,6,flower,distractor,93,11,0.8942307692307693,NA,1,1,NA,340,0,1550,1550,3720,14
6_casillas_tseltal_2015_39,7,balti,39,6,bucket,target,98,5,0.9514563106796117,NA,1,NA,1,NA,0,1633.3333333333335,1633.3333333333335,3920,14
6_casillas_tseltal_2015_39,8,mut,39,6,chicken,target,106,0,1,NA,1,NA,1,NA,0,1766.6666666666667,1766.6666666666667,4240,14
6_casillas_tseltal_2015_39,9,k'ajk',39,6,fire,target,106,0,1,NA,1,NA,1,NA,0,1766.6666666666667,1766.6666666666667,4240,14
6_casillas_tseltal_2015_39,10,mexa,39,6,table,distractor,82,22,0.7884615384615384,NA,1,1,NA,615,1,1366.6666666666667,1366.6666666666667,3280,14
6_casillas_tseltal_2015_39,11,xawin,39,6,cat,distractor,101,3,0.9711538461538461,NA,1,1,NA,140,0,1683.3333333333335,1683.3333333333335,4040,14
6_casillas_tseltal_2015_39,12,ja',39,6,water,target,51,53,0.49038461538461536,NA,1,NA,0,NA,1,850.0000000000001,850.0000000000001,2040,14
6_casillas_tseltal_2015_39,13,ixim,39,6,corn,target,106,0,1,NA,1,NA,1,NA,0,1766.6666666666667,1766.6666666666667,4240,14
6_casillas_tseltal_2015_39,14,karo,39,6,car,distractor,87,18,0.8285714285714286,NA,1,1,NA,490,1,1450,1450,3480,14
6_casillas_tseltal_2015_39,15,na,39,6,house,target,13,92,0.12380952380952381,NA,1,NA,0,NA,1,216.66666666666669,216.66666666666669,520,14
6_casillas_tseltal_2015_39,16,te,39,6,tree,distractor,74,29,0.7184466019417476,NA,1,1,NA,815,1,1233.3333333333335,1233.3333333333335,2960,14
6_casillas_tseltal_2015_39,17,waybal,39,6,bed,distractor,77,29,0.7264150943396226,NA,1,1,NA,740,1,1283.3333333333335,1283.3333333333335,3080,14
6_casillas_tseltal_2015_39,18,t'inel,39,6,doorway,distractor,7,96,0.06796116504854369,NA,NA,0,NA,NA,0,NA,NA,NA,14
6_casillas_tseltal_2015_39,19,lo'bal,39,6,banana,target,106,0,1,NA,1,NA,1,NA,0,1766.6666666666667,1766.6666666666667,4240,14
6_casillas_tseltal_2015_39,20,chenek',39,6,bean,distractor,69,35,0.6634615384615384,NA,1,1,NA,940,1,1150,1150,2760,14
6_casillas_tseltal_2015_39,21,tz'i,39,6,dog,target,63,34,0.6494845360824743,NA,2,NA,0,NA,2,525,616.6666666666667,1480,14
6_casillas_tseltal_2015_39,22,tomut,39,6,egg,distractor,79,24,0.7669902912621359,NA,1,1,NA,690,1,1316.6666666666667,1316.6666666666667,3160,14
6_casillas_tseltal_2015_39,23,p'in,39,6,pot-tseltal,distractor,98,6,0.9423076923076923,NA,1,1,NA,215,0,1633.3333333333335,1633.3333333333335,3920,14
6_casillas_tseltal_2015_39,24,tzek',39,6,skirt-tseltal,distractor,79,26,0.7523809523809524,NA,1,1,NA,690,1,1316.6666666666667,1316.6666666666667,3160,14
6_casillas_tseltal_2015_39,25,ich,39,6,chile,distractor,101,3,0.9711538461538461,NA,1,1,NA,140,0,1683.3333333333335,1683.3333333333335,4040,14
6_casillas_tseltal_2015_39,26,xila,39,6,chair,target,102,0,1,NA,2,NA,1,NA,0,850.0000000000001,1433.3333333333335,3440,14
6_casillas_tseltal_2015_39,27,mes,39,6,broom,target,106,0,1,NA,1,NA,1,NA,0,1766.6666666666667,1766.6666666666667,4240,14
6_casillas_tseltal_2015_39,28,machit,39,6,machete,distractor,24,80,0.23076923076923078,NA,1,0,NA,NA,1,400,400,960,14
6_casillas_tseltal_2015_39,29,si',39,6,firewood,distractor,72,32,0.6923076923076923,NA,1,1,NA,865,1,1200,1200,2880,14
6_casillas_tseltal_2015_39,30,bojch,39,6,bowl-tseltal,distractor,71,34,0.6761904761904762,NA,1,1,NA,890,1,1183.3333333333335,1183.3333333333335,2840,14
7_casillas_tseltal_2015_25,1,wa,25,7,tortilla,distractor,0,87,0,NA,NA,0,NA,NA,0,NA,NA,NA,0
7_casillas_tseltal_2015_25,2,moch,25,7,basket-tseltal,distractor,0,106,0,NA,NA,0,NA,NA,0,NA,NA,NA,0
7_casillas_tseltal_2015_25,3,pelota,25,7,ball,distractor,0,104,0,NA,NA,0,NA,NA,0,NA,NA,NA,0
7_casillas_tseltal_2015_25,4,chojak',25,7,purse-tseltal,distractor,0,106,0,NA,NA,0,NA,NA,0,NA,NA,NA,0
7_casillas_tseltal_2015_25,5,baso,25,7,cup,target,106,0,1,NA,1,NA,1,NA,0,1766.6666666666667,1766.6666666666667,4240,0
7_casillas_tseltal_2015_25,6,nichim,25,7,flower,target,106,0,1,NA,1,NA,1,NA,0,1766.6666666666667,1766.6666666666667,4240,0
7_casillas_tseltal_2015_25,7,balti,25,7,bucket,distractor,0,106,0,NA,NA,0,NA,NA,0,NA,NA,NA,0
7_casillas_tseltal_2015_25,8,mut,25,7,chicken,distractor,56,48,0.5384615384615384,NA,1,1,NA,1265,1,933.3333333333334,933.3333333333334,2240,0
7_casillas_tseltal_2015_25,9,k'ajk',25,7,fire,distractor,0,106,0,NA,NA,0,NA,NA,0,NA,NA,NA,0
7_casillas_tseltal_2015_25,10,mexa,25,7,table,target,85,21,0.8018867924528302,NA,1,NA,1,NA,1,1416.6666666666667,1416.6666666666667,3400,0
7_casillas_tseltal_2015_25,11,xawin,25,7,cat,target,106,0,1,NA,1,NA,1,NA,0,1766.6666666666667,1766.6666666666667,4240,0
7_casillas_tseltal_2015_25,12,ja',25,7,water,target,106,0,1,NA,1,NA,1,NA,0,1766.6666666666667,1766.6666666666667,4240,0
7_casillas_tseltal_2015_25,13,ixim,25,7,corn,target,106,0,1,NA,1,NA,1,NA,0,1766.6666666666667,1766.6666666666667,4240,0
7_casillas_tseltal_2015_25,14,karo,25,7,car,target,106,0,1,NA,1,NA,1,NA,0,1766.6666666666667,1766.6666666666667,4240,0
7_casillas_tseltal_2015_25,15,na,25,7,house,distractor,0,106,0,NA,NA,0,NA,NA,0,NA,NA,NA,0
7_casillas_tseltal_2015_25,16,te,25,7,tree,distractor,0,55,0,NA,NA,0,NA,NA,0,NA,NA,NA,0
7_casillas_tseltal_2015_25,17,waybal,25,7,bed,target,106,0,1,NA,1,NA,1,NA,0,1766.6666666666667,1766.6666666666667,4240,0
7_casillas_tseltal_2015_25,18,t'inel,25,7,doorway,target,99,0,1,NA,1,NA,1,NA,0,1650.0000000000002,1650.0000000000002,3960,0
7_casillas_tseltal_2015_25,19,lo'bal,25,7,banana,neither,50,26,0.6578947368421053,NA,1,NA,NA,NA,1,833.3333333333334,833.3333333333334,2000,0
7_casillas_tseltal_2015_25,20,chenek',25,7,bean,distractor,0,106,0,NA,NA,0,NA,NA,0,NA,NA,NA,0
7_casillas_tseltal_2015_25,21,tz'i,25,7,dog,target,106,0,1,NA,1,NA,1,NA,0,1766.6666666666667,1766.6666666666667,4240,0
7_casillas_tseltal_2015_25,22,tomut,25,7,egg,distractor,32,72,0.3076923076923077,NA,1,0,NA,NA,1,533.3333333333334,533.3333333333334,1280,0
7_casillas_tseltal_2015_25,23,p'in,25,7,pot-tseltal,target,3,101,0.028846153846153848,NA,NA,NA,0,NA,0,NA,NA,NA,0
7_casillas_tseltal_2015_25,24,tzek',25,7,skirt-tseltal,target,103,0,1,NA,2,NA,1,NA,0,858.3333333333334,1366.6666666666667,3280,0
7_casillas_tseltal_2015_25,25,ich,25,7,chile,target,106,0,1,NA,1,NA,1,NA,0,1766.6666666666667,1766.6666666666667,4240,0
7_casillas_tseltal_2015_25,26,xila,25,7,chair,target,106,0,1,NA,1,NA,1,NA,0,1766.6666666666667,1766.6666666666667,4240,0
7_casillas_tseltal_2015_25,27,mes,25,7,broom,distractor,0,106,0,NA,NA,0,NA,NA,0,NA,NA,NA,0
7_casillas_tseltal_2015_25,28,machit,25,7,machete,target,106,0,1,NA,1,NA,1,NA,0,1766.6666666666667,1766.6666666666667,4240,0
7_casillas_tseltal_2015_25,29,si',25,7,firewood,target,106,0,1,NA,1,NA,1,NA,0,1766.6666666666667,1766.6666666666667,4240,0
7_casillas_tseltal_2015_25,30,bojch,25,7,bowl-tseltal,target,106,0,1,NA,1,NA,1,NA,0,1766.6666666666667,1766.6666666666667,4240,0
8_casillas_tseltal_2015_14,1,wa,14,8,tortilla,distractor,70,32,0.6862745098039216,NA,1,1,NA,815,1,1166.6666666666667,1166.6666666666667,2800,-11
8_casillas_tseltal_2015_14,2,moch,14,8,basket-tseltal,target,40,62,0.39215686274509803,NA,1,NA,0,NA,1,483.33333333333337,483.33333333333337,1160,-11
8_casillas_tseltal_2015_14,3,pelota,14,8,ball,target,106,0,1,NA,1,NA,1,NA,0,1766.6666666666667,1766.6666666666667,4240,-11
8_casillas_tseltal_2015_14,4,chojak',14,8,purse-tseltal,target,6,98,0.057692307692307696,NA,NA,NA,0,NA,0,NA,NA,NA,-11
8_casillas_tseltal_2015_14,6,nichim,14,8,flower,target,96,10,0.9056603773584906,NA,1,NA,1,NA,0,1600,1600,3840,-11
8_casillas_tseltal_2015_14,7,balti,14,8,bucket,target,106,0,1,NA,1,NA,1,NA,0,1766.6666666666667,1766.6666666666667,4240,-11
8_casillas_tseltal_2015_14,8,mut,14,8,chicken,distractor,27,77,0.25961538461538464,NA,1,1,NA,1290,2,450.00000000000006,450.00000000000006,1080,-11
8_casillas_tseltal_2015_14,9,k'ajk',14,8,fire,target,106,0,1,NA,1,NA,1,NA,0,1766.6666666666667,1766.6666666666667,4240,-11
8_casillas_tseltal_2015_14,10,mexa,14,8,table,distractor,0,106,0,NA,NA,0,NA,NA,0,NA,NA,NA,-11
8_casillas_tseltal_2015_14,11,xawin,14,8,cat,target,106,0,1,NA,1,NA,1,NA,0,1766.6666666666667,1766.6666666666667,4240,-11
8_casillas_tseltal_2015_14,12,ja',14,8,water,distractor,57,47,0.5480769230769231,NA,1,1,NA,665,2,950.0000000000001,950.0000000000001,2280,-11
8_casillas_tseltal_2015_14,13,ixim,14,8,corn,target,44,61,0.41904761904761906,NA,2,NA,0,NA,2,366.6666666666667,350,920,-11
8_casillas_tseltal_2015_14,14,karo,14,8,car,distractor,0,106,0,NA,NA,0,NA,NA,0,NA,NA,NA,-11
8_casillas_tseltal_2015_14,15,na,14,8,house,distractor,16,87,0.1553398058252427,NA,1,1,NA,1065,2,266.6666666666667,266.6666666666667,640,-11
8_casillas_tseltal_2015_14,17,waybal,14,8,bed,distractor,26,72,0.2653061224489796,NA,1,0,NA,NA,1,433.33333333333337,433.33333333333337,1040,-11
8_casillas_tseltal_2015_14,18,t'inel,14,8,doorway,distractor,0,106,0,NA,NA,0,NA,NA,0,NA,NA,NA,-11
8_casillas_tseltal_2015_14,19,lo'bal,14,8,banana,target,106,0,1,NA,1,NA,1,NA,0,1766.6666666666667,1766.6666666666667,4240,-11
8_casillas_tseltal_2015_14,21,tz'i,14,8,dog,target,71,35,0.6698113207547169,NA,1,NA,1,NA,1,1016.6666666666667,1016.6666666666667,2440,-11
8_casillas_tseltal_2015_14,22,tomut,14,8,egg,distractor,24,78,0.23529411764705882,NA,1,1,NA,1015,2,400,400,960,-11
8_casillas_tseltal_2015_14,23,p'in,14,8,pot-tseltal,neither,50,40,0.5555555555555556,NA,1,NA,NA,NA,2,716.6666666666667,716.6666666666667,1720,-11
8_casillas_tseltal_2015_14,24,tzek',14,8,skirt-tseltal,distractor,0,106,0,NA,NA,0,NA,NA,0,NA,NA,NA,-11
8_casillas_tseltal_2015_14,25,ich,14,8,chile,distractor,47,52,0.47474747474747475,NA,1,1,NA,1090,2,750,750,1800,-11
8_casillas_tseltal_2015_14,26,xila,14,8,chair,distractor,0,106,0,NA,NA,0,NA,NA,0,NA,NA,NA,-11
8_casillas_tseltal_2015_14,27,mes,14,8,broom,target,45,44,0.5056179775280899,NA,1,NA,0,NA,1,750,750,1800,-11
8_casillas_tseltal_2015_14,28,machit,14,8,machete,distractor,0,106,0,NA,NA,0,NA,NA,0,NA,NA,NA,-11
8_casillas_tseltal_2015_14,29,si',14,8,firewood,distractor,12,86,0.12244897959183673,NA,1,0,NA,NA,1,200,200,480,-11
8_casillas_tseltal_2015_14,30,bojch,14,8,bowl-tseltal,target,106,0,1,NA,1,NA,1,NA,0,1766.6666666666667,1766.6666666666667,4240,-11
9_casillas_tseltal_2015_42,1,wa,42,9,tortilla,target,106,0,1,NA,1,NA,1,NA,0,1766.6666666666667,1766.6666666666667,4240,17
9_casillas_tseltal_2015_42,2,moch,42,9,basket-tseltal,target,77,28,0.7333333333333333,NA,1,NA,1,NA,1,1283.3333333333335,1283.3333333333335,3080,17
9_casillas_tseltal_2015_42,3,pelota,42,9,ball,target,72,31,0.6990291262135923,NA,1,NA,1,NA,1,1200,1200,2880,17
9_casillas_tseltal_2015_42,4,chojak',42,9,purse-tseltal,distractor,29,72,0.2871287128712871,NA,1,1,NA,415,2,483.33333333333337,483.33333333333337,1160,17
9_casillas_tseltal_2015_42,5,baso,42,9,cup,distractor,56,44,0.56,NA,1,1,NA,615,2,900.0000000000001,900.0000000000001,2160,17
9_casillas_tseltal_2015_42,6,nichim,42,9,flower,target,71,29,0.71,NA,2,NA,0,NA,2,591.6666666666667,833.3333333333334,2000,17
9_casillas_tseltal_2015_42,7,balti,42,9,bucket,distractor,43,59,0.4215686274509804,NA,1,1,NA,615,2,716.6666666666667,716.6666666666667,1720,17
9_casillas_tseltal_2015_42,8,mut,42,9,chicken,target,106,0,1,NA,1,NA,1,NA,0,1766.6666666666667,1766.6666666666667,4240,17
9_casillas_tseltal_2015_42,9,k'ajk',42,9,fire,distractor,68,30,0.6938775510204082,NA,2,1,NA,165,2,483.33333333333337,716.6666666666667,1720,17
9_casillas_tseltal_2015_42,10,mexa,42,9,table,distractor,72,25,0.7422680412371134,NA,1,1,NA,365,1,1066.6666666666667,1066.6666666666667,2560,17
9_casillas_tseltal_2015_42,11,xawin,42,9,cat,target,72,29,0.7128712871287128,NA,1,NA,1,NA,1,1116.6666666666667,1116.6666666666667,2680,17
9_casillas_tseltal_2015_42,12,ja',42,9,water,distractor,56,49,0.5333333333333333,NA,1,1,NA,565,2,933.3333333333334,933.3333333333334,2240,17
9_casillas_tseltal_2015_42,13,ixim,42,9,corn,target,71,30,0.7029702970297029,NA,2,NA,0,NA,2,591.6666666666667,316.6666666666667,2080,17
9_casillas_tseltal_2015_42,14,karo,42,9,car,distractor,85,19,0.8173076923076923,NA,1,1,NA,540,1,1416.6666666666667,1416.6666666666667,3400,17
9_casillas_tseltal_2015_42,15,na,42,9,house,distractor,25,71,0.2604166666666667,NA,1,1,NA,865,2,416.6666666666667,416.6666666666667,1000,17
9_casillas_tseltal_2015_42,16,te,42,9,tree,target,39,63,0.38235294117647056,NA,1,NA,0,NA,1,466.6666666666667,466.6666666666667,1120,17
9_casillas_tseltal_2015_42,17,waybal,42,9,bed,target,11,92,0.10679611650485436,NA,NA,NA,0,NA,0,NA,NA,NA,17
9_casillas_tseltal_2015_42,18,t'inel,42,9,doorway,distractor,0,106,0,NA,NA,0,NA,NA,0,NA,NA,NA,17
9_casillas_tseltal_2015_42,19,lo'bal,42,9,banana,target,71,32,0.6893203883495146,NA,2,NA,0,NA,2,591.6666666666667,666.6666666666667,1600,17
9_casillas_tseltal_2015_42,20,chenek',42,9,bean,distractor,69,34,0.6699029126213593,NA,1,1,NA,365,2,1150,1150,2760,17
9_casillas_tseltal_2015_42,21,tz'i,42,9,dog,target,106,0,1,NA,1,NA,1,NA,0,1766.6666666666667,1766.6666666666667,4240,17
9_casillas_tseltal_2015_42,22,tomut,42,9,egg,target,69,35,0.6634615384615384,NA,1,NA,1,NA,1,1150,1150,2760,17
9_casillas_tseltal_2015_42,23,p'in,42,9,pot-tseltal,distractor,27,76,0.2621359223300971,NA,1,1,NA,465,2,450.00000000000006,450.00000000000006,1080,17
9_casillas_tseltal_2015_42,24,tzek',42,9,skirt-tseltal,distractor,71,34,0.6761904761904762,NA,1,1,NA,890,1,1183.3333333333335,1183.3333333333335,2840,17
9_casillas_tseltal_2015_42,25,ich,42,9,chile,target,40,60,0.4,NA,1,NA,0,NA,1,666.6666666666667,666.6666666666667,1600,17
9_casillas_tseltal_2015_42,26,xila,42,9,chair,target,67,37,0.6442307692307693,NA,1,NA,1,NA,1,1116.6666666666667,1116.6666666666667,2680,17
9_casillas_tseltal_2015_42,27,mes,42,9,broom,target,72,30,0.7058823529411765,NA,2,NA,0,NA,2,600,233.33333333333334,2320,17
9_casillas_tseltal_2015_42,28,machit,42,9,machete,distractor,92,13,0.8761904761904762,NA,1,1,NA,365,1,1533.3333333333335,1533.3333333333335,3680,17
9_casillas_tseltal_2015_42,29,si',42,9,firewood,target,38,64,0.37254901960784315,NA,1,NA,0,NA,1,633.3333333333334,633.3333333333334,1520,17
9_casillas_tseltal_2015_42,30,bojch,42,9,bowl-tseltal,target,42,59,0.4158415841584158,NA,1,NA,0,NA,2,616.6666666666667,616.6666666666667,1480,17
10_casillas_tseltal_2015_46,1,wa,46,10,tortilla,target,86,12,0.8775510204081632,NA,2,NA,0,NA,2,716.6666666666667,766.6666666666667,1840,21
10_casillas_tseltal_2015_46,2,moch,46,10,basket-tseltal,target,80,24,0.7692307692307693,NA,1,NA,1,NA,1,1333.3333333333335,1333.3333333333335,3200,21
10_casillas_tseltal_2015_46,3,pelota,46,10,ball,target,88,6,0.9361702127659575,NA,1,NA,1,NA,0,1466.6666666666667,1466.6666666666667,3520,21
10_casillas_tseltal_2015_46,4,chojak',46,10,purse-tseltal,distractor,93,10,0.9029126213592233,NA,1,1,NA,340,0,1550,1550,3720,21
10_casillas_tseltal_2015_46,5,baso,46,10,cup,distractor,103,0,1,NA,1,1,NA,90,0,1716.6666666666667,1716.6666666666667,4120,21
10_casillas_tseltal_2015_46,6,nichim,46,10,flower,target,106,0,1,NA,1,NA,1,NA,0,1766.6666666666667,1766.6666666666667,4240,21
10_casillas_tseltal_2015_46,7,balti,46,10,bucket,distractor,84,21,0.8,NA,1,1,NA,565,1,1400,1400,3360,21
10_casillas_tseltal_2015_46,8,mut,46,10,chicken,target,62,38,0.62,NA,1,NA,0,NA,1,1033.3333333333335,1033.3333333333335,2480,21
10_casillas_tseltal_2015_46,9,k'ajk',46,10,fire,distractor,93,10,0.9029126213592233,NA,1,1,NA,340,0,1550,1550,3720,21
10_casillas_tseltal_2015_46,10,mexa,46,10,table,distractor,95,10,0.9047619047619048,NA,1,1,NA,290,0,1583.3333333333335,1583.3333333333335,3800,21
10_casillas_tseltal_2015_46,11,xawin,46,10,cat,distractor,85,19,0.8173076923076923,NA,1,1,NA,540,1,1416.6666666666667,1416.6666666666667,3400,21
10_casillas_tseltal_2015_46,12,ja',46,10,water,distractor,61,42,0.5922330097087378,NA,1,1,NA,1140,1,1016.6666666666667,1016.6666666666667,2440,21
10_casillas_tseltal_2015_46,13,ixim,46,10,corn,target,80,19,0.8080808080808081,NA,2,NA,0,NA,2,666.6666666666667,666.6666666666667,1600,21
10_casillas_tseltal_2015_46,14,karo,46,10,car,target,106,0,1,NA,1,NA,1,NA,0,1766.6666666666667,1766.6666666666667,4240,21
10_casillas_tseltal_2015_46,15,na,46,10,house,distractor,79,26,0.7523809523809524,NA,1,1,NA,690,1,1316.6666666666667,1316.6666666666667,3160,21
10_casillas_tseltal_2015_46,16,te,46,10,tree,distractor,85,18,0.8252427184466019,NA,1,1,NA,540,1,1416.6666666666667,1416.6666666666667,3400,21
10_casillas_tseltal_2015_46,17,waybal,46,10,bed,target,90,11,0.8910891089108911,NA,1,NA,0,NA,0,1366.6666666666667,1366.6666666666667,3280,21
10_casillas_tseltal_2015_46,18,t'inel,46,10,doorway,target,106,0,1,NA,1,NA,1,NA,0,1766.6666666666667,1766.6666666666667,4240,21
10_casillas_tseltal_2015_46,19,lo'bal,46,10,banana,target,106,0,1,NA,1,NA,1,NA,0,1766.6666666666667,1766.6666666666667,4240,21
10_casillas_tseltal_2015_46,20,chenek',46,10,bean,distractor,14,62,0.18421052631578946,NA,1,1,NA,1415,2,233.33333333333334,233.33333333333334,560,21
10_casillas_tseltal_2015_46,21,tz'i,46,10,dog,distractor,82,21,0.7961165048543689,NA,1,1,NA,615,1,1366.6666666666667,1366.6666666666667,3280,21
10_casillas_tseltal_2015_46,22,tomut,46,10,egg,distractor,47,56,0.4563106796116505,NA,1,0,NA,NA,1,783.3333333333334,783.3333333333334,1880,21
10_casillas_tseltal_2015_46,23,p'in,46,10,pot-tseltal,distractor,87,18,0.8285714285714286,NA,1,1,NA,490,1,1450,1450,3480,21
10_casillas_tseltal_2015_46,24,tzek',46,10,skirt-tseltal,target,52,50,0.5098039215686274,NA,2,NA,0,NA,2,433.33333333333337,616.6666666666667,1480,21
10_casillas_tseltal_2015_46,25,ich,46,10,chile,distractor,84,19,0.8155339805825242,NA,1,1,NA,565,1,1400,1400,3360,21
10_casillas_tseltal_2015_46,26,xila,46,10,chair,target,80,19,0.8080808080808081,NA,2,NA,0,NA,2,666.6666666666667,833.3333333333334,2000,21
10_casillas_tseltal_2015_46,27,mes,46,10,broom,distractor,89,11,0.89,NA,1,1,NA,365,0,1400,1400,3360,21
10_casillas_tseltal_2015_46,28,machit,46,10,machete,target,106,0,1,NA,1,NA,1,NA,0,1766.6666666666667,1766.6666666666667,4240,21
10_casillas_tseltal_2015_46,29,si',46,10,firewood,target,106,0,1,NA,1,NA,1,NA,0,1766.6666666666667,1766.6666666666667,4240,21
10_casillas_tseltal_2015_46,30,bojch,46,10,bowl-tseltal,distractor,68,37,0.6476190476190476,NA,1,1,NA,965,1,1133.3333333333335,1133.3333333333335,2720,21
11_casillas_tseltal_2015_9,1,wa,9,11,tortilla,target,47,54,0.46534653465346537,NA,1,NA,0,NA,2,783.3333333333334,783.3333333333334,1880,-16
11_casillas_tseltal_2015_9,12,ja',9,11,water,target,67,33,0.67,NA,2,NA,0,NA,2,558.3333333333334,500.00000000000006,1480,-16
11_casillas_tseltal_2015_9,22,tomut,9,11,egg,distractor,4,87,0.04395604395604396,NA,NA,0,NA,NA,0,NA,NA,NA,-16
11_casillas_tseltal_2015_9,24,tzek',9,11,skirt-tseltal,target,66,32,0.673469387755102,NA,1,NA,1,NA,1,1100,1100,2640,-16
11_casillas_tseltal_2015_9,25,ich,9,11,chile,distractor,48,27,0.64,NA,1,0,NA,NA,1,800,800,1920,-16
11_casillas_tseltal_2015_9,26,xila,9,11,chair,distractor,63,29,0.6847826086956522,NA,2,1,NA,815,1,525,433.33333333333337,1480,-16
12_casillas_tseltal_2015_16,1,lo'bal,16,12,banana,target,106,0,1,NA,1,NA,1,NA,0,1766.6666666666667,1766.6666666666667,4240,-9
12_casillas_tseltal_2015_16,8,xila,16,12,chair,target,106,0,1,NA,1,NA,1,NA,0,1766.6666666666667,1766.6666666666667,4240,-9
12_casillas_tseltal_2015_16,13,wa,16,12,tortilla,distractor,31,69,0.31,NA,1,1,NA,1090,2,516.6666666666667,516.6666666666667,1240,-9
12_casillas_tseltal_2015_16,14,moch,16,12,basket-tseltal,target,30,72,0.29411764705882354,NA,1,NA,0,NA,1,466.6666666666667,466.6666666666667,1120,-9
12_casillas_tseltal_2015_16,15,pelota,16,12,ball,distractor,5,99,0.04807692307692308,NA,NA,0,NA,NA,0,NA,NA,NA,-9
12_casillas_tseltal_2015_16,16,chojak',16,12,purse-tseltal,target,35,69,0.33653846153846156,NA,1,NA,0,NA,1,583.3333333333334,583.3333333333334,1400,-9
12_casillas_tseltal_2015_16,17,baso,16,12,cup,target,106,0,1,NA,1,NA,1,NA,0,1766.6666666666667,1766.6666666666667,4240,-9
12_casillas_tseltal_2015_16,18,nichim,16,12,flower,target,19,85,0.18269230769230768,NA,1,NA,0,NA,1,316.6666666666667,316.6666666666667,760,-9
12_casillas_tseltal_2015_16,19,balti,16,12,bucket,distractor,0,106,0,NA,NA,0,NA,NA,0,NA,NA,NA,-9
12_casillas_tseltal_2015_16,20,mut,16,12,chicken,target,77,15,0.8369565217391305,NA,2,NA,1,NA,1,641.6666666666667,1066.6666666666667,2560,-9
12_casillas_tseltal_2015_16,21,k'ajk',16,12,fire,target,85,16,0.8415841584158416,NA,2,NA,1,NA,2,708.3333333333335,900.0000000000001,2160,-9
12_casillas_tseltal_2015_16,22,mexa,16,12,table,target,70,27,0.7216494845360825,NA,2,NA,0,NA,2,583.3333333333334,233.33333333333334,2240,-9
12_casillas_tseltal_2015_16,23,xawin,16,12,cat,distractor,53,51,0.5096153846153846,NA,1,1,NA,1340,1,883.3333333333334,883.3333333333334,2120,-9
12_casillas_tseltal_2015_16,24,ja',16,12,water,target,40,33,0.547945205479452,NA,1,NA,0,NA,1,533.3333333333334,533.3333333333334,1280,-9
12_casillas_tseltal_2015_16,26,karo,16,12,car,target,46,48,0.48936170212765956,NA,1,NA,0,NA,1,766.6666666666667,766.6666666666667,1840,-9
12_casillas_tseltal_2015_16,27,bojch,16,12,bowl-tseltal,target,85,19,0.8173076923076923,NA,1,NA,0,NA,1,1416.6666666666667,1416.6666666666667,3400,-9
12_casillas_tseltal_2015_16,28,na,16,12,house,distractor,52,42,0.5531914893617021,NA,1,1,NA,90,1,750,750,1800,-9
12_casillas_tseltal_2015_16,29,te,16,12,tree,distractor,56,0,1,NA,2,1,NA,90,0,466.6666666666667,400,1280,-9
12_casillas_tseltal_2015_16,30,waybal,16,12,bed,target,106,0,1,NA,1,NA,1,NA,0,1766.6666666666667,1766.6666666666667,4240,-9
12_casillas_tseltal_2015_16,31,t'inel,16,12,doorway,target,51,53,0.49038461538461536,NA,1,NA,0,NA,1,850.0000000000001,850.0000000000001,2040,-9
12_casillas_tseltal_2015_16,32,chenek',16,12,bean,target,106,0,1,NA,1,NA,1,NA,0,1766.6666666666667,1766.6666666666667,4240,-9
12_casillas_tseltal_2015_16,33,tz'i,16,12,dog,distractor,0,106,0,NA,NA,0,NA,NA,0,NA,NA,NA,-9
12_casillas_tseltal_2015_16,34,tomut,16,12,egg,target,82,23,0.780952380952381,NA,2,NA,0,NA,2,683.3333333333334,216.66666666666669,2760,-9
12_casillas_tseltal_2015_16,35,p'in,16,12,pot-tseltal,distractor,0,106,0,NA,NA,0,NA,NA,0,NA,NA,NA,-9
12_casillas_tseltal_2015_16,36,tzek',16,12,skirt-tseltal,target,70,34,0.6730769230769231,NA,1,NA,1,NA,1,1166.6666666666667,1166.6666666666667,2800,-9
12_casillas_tseltal_2015_16,37,ich,16,12,chile,target,51,44,0.5368421052631579,NA,1,NA,1,NA,1,850.0000000000001,850.0000000000001,2040,-9
12_casillas_tseltal_2015_16,38,mes,16,12,broom,neither,19,83,0.18627450980392157,NA,1,NA,NA,NA,1,316.6666666666667,316.6666666666667,760,-9
12_casillas_tseltal_2015_16,39,machit,16,12,machete,distractor,0,106,0,NA,NA,0,NA,NA,0,NA,NA,NA,-9
12_casillas_tseltal_2015_16,40,si',16,12,firewood,target,106,0,1,NA,1,NA,1,NA,0,1766.6666666666667,1766.6666666666667,4240,-9
13_casillas_tseltal_2015_48,1,xila,48,13,chair,target,106,0,1,NA,1,NA,1,NA,0,1766.6666666666667,1766.6666666666667,4240,23
13_casillas_tseltal_2015_48,6,wa,48,13,tortilla,target,55,44,0.5555555555555556,NA,3,NA,0,NA,4,305.5555555555556,450.00000000000006,1080,23
13_casillas_tseltal_2015_48,7,moch,48,13,basket-tseltal,target,55,41,0.5729166666666666,NA,1,NA,0,NA,1,783.3333333333334,783.3333333333334,1880,23
13_casillas_tseltal_2015_48,8,pelota,48,13,ball,target,8,94,0.0784313725490196,NA,NA,NA,0,NA,0,NA,NA,NA,23
13_casillas_tseltal_2015_48,9,chojak',48,13,purse-tseltal,target,48,54,0.47058823529411764,NA,2,NA,0,NA,2,400,366.6666666666667,1040,23
13_casillas_tseltal_2015_48,10,baso,48,13,cup,distractor,61,41,0.5980392156862745,NA,1,1,NA,940,1,1016.6666666666667,1016.6666666666667,2440,23
13_casillas_tseltal_2015_48,11,nichim,48,13,flower,target,72,11,0.8674698795180723,NA,1,NA,0,NA,0,1200,1200,2880,23
13_casillas_tseltal_2015_48,12,balti,48,13,bucket,target,43,59,0.4215686274509804,NA,2,NA,0,NA,3,358.33333333333337,266.6666666666667,1080,23
13_casillas_tseltal_2015_48,17,ja',48,13,water,distractor,59,45,0.5673076923076923,NA,1,1,NA,15,1,983.3333333333334,983.3333333333334,2360,23
13_casillas_tseltal_2015_48,27,tomut,48,13,egg,distractor,88,15,0.8543689320388349,NA,1,1,NA,365,1,1466.6666666666667,1466.6666666666667,3520,23
13_casillas_tseltal_2015_48,29,tzek',48,13,skirt-tseltal,distractor,0,106,0,NA,NA,0,NA,NA,0,NA,NA,NA,23
13_casillas_tseltal_2015_48,30,ich,48,13,chile,distractor,0,103,0,NA,NA,0,NA,NA,0,NA,NA,NA,23
13_casillas_tseltal_2015_48,31,mes,48,13,broom,target,106,0,1,NA,1,NA,1,NA,0,1766.6666666666667,1766.6666666666667,4240,23
13_casillas_tseltal_2015_48,32,machit,48,13,machete,distractor,69,35,0.6634615384615384,NA,1,1,NA,540,1,1050,1050,2520,23
13_casillas_tseltal_2015_48,33,si',48,13,firewood,target,29,77,0.27358490566037735,NA,1,NA,0,NA,1,300,300,720,23
14_casillas_tseltal_2015_29,1,lo'bal,29,14,banana,distractor,45,56,0.44554455445544555,NA,1,1,NA,290,1,583.3333333333334,583.3333333333334,1400,4
14_casillas_tseltal_2015_29,8,xila,29,14,chair,target,78,15,0.8387096774193549,NA,1,NA,1,NA,1,1300,1300,3120,4
14_casillas_tseltal_2015_29,13,wa,29,14,tortilla,distractor,21,71,0.22826086956521738,NA,1,1,NA,540,2,266.6666666666667,266.6666666666667,640,4
14_casillas_tseltal_2015_29,14,moch,29,14,basket-tseltal,target,106,0,1,NA,1,NA,1,NA,0,1766.6666666666667,1766.6666666666667,4240,4
14_casillas_tseltal_2015_29,15,pelota,29,14,ball,target,75,26,0.7425742574257426,NA,2,NA,0,NA,2,625,316.6666666666667,2240,4
14_casillas_tseltal_2015_29,16,chojak',29,14,purse-tseltal,target,48,38,0.5581395348837209,NA,1,NA,0,NA,1,800,800,1920,4
14_casillas_tseltal_2015_29,17,baso,29,14,cup,distractor,80,24,0.7692307692307693,NA,1,1,NA,665,1,1333.3333333333335,1333.3333333333335,3200,4
14_casillas_tseltal_2015_29,18,nichim,29,14,flower,target,78,20,0.7959183673469388,NA,2,NA,0,NA,2,650,800,1920,4
14_casillas_tseltal_2015_29,19,balti,29,14,bucket,target,106,0,1,NA,1,NA,1,NA,0,1766.6666666666667,1766.6666666666667,4240,4
14_casillas_tseltal_2015_29,20,mut,29,14,chicken,target,43,57,0.43,NA,2,NA,0,NA,2,358.33333333333337,316.6666666666667,960,4
14_casillas_tseltal_2015_29,21,k'ajk',29,14,fire,target,44,58,0.43137254901960786,NA,2,NA,0,NA,2,366.6666666666667,350,920,4
14_casillas_tseltal_2015_29,22,mexa,29,14,table,target,29,76,0.2761904761904762,NA,1,NA,0,NA,1,483.33333333333337,483.33333333333337,1160,4
14_casillas_tseltal_2015_29,23,xawin,29,14,cat,target,31,72,0.30097087378640774,NA,1,NA,0,NA,1,483.33333333333337,483.33333333333337,1160,4
14_casillas_tseltal_2015_29,24,ja',29,14,water,distractor,97,5,0.9509803921568627,NA,1,1,NA,65,0,1616.6666666666667,1616.6666666666667,3880,4
14_casillas_tseltal_2015_29,25,ixim,29,14,corn,target,63,40,0.6116504854368932,NA,2,NA,0,NA,2,525,533.3333333333334,1280,4
14_casillas_tseltal_2015_29,26,karo,29,14,car,target,70,34,0.6730769230769231,NA,1,NA,1,NA,1,1166.6666666666667,1166.6666666666667,2800,4
14_casillas_tseltal_2015_29,27,bojch,29,14,bowl-tseltal,distractor,29,70,0.29292929292929293,NA,1,1,NA,490,2,450.00000000000006,450.00000000000006,1080,4
14_casillas_tseltal_2015_29,28,na,29,14,house,distractor,46,56,0.45098039215686275,NA,1,1,NA,465,2,766.6666666666667,766.6666666666667,1840,4
14_casillas_tseltal_2015_29,29,te,29,14,tree,distractor,88,16,0.8461538461538461,NA,1,1,NA,465,1,1466.6666666666667,1466.6666666666667,3520,4
14_casillas_tseltal_2015_29,30,waybal,29,14,bed,target,106,0,1,NA,1,NA,1,NA,0,1766.6666666666667,1766.6666666666667,4240,4
14_casillas_tseltal_2015_29,31,t'inel,29,14,doorway,target,10,95,0.09523809523809523,NA,NA,NA,0,NA,0,NA,NA,NA,4
14_casillas_tseltal_2015_29,32,chenek',29,14,bean,neither,43,34,0.5584415584415584,NA,2,NA,NA,NA,3,358.33333333333337,300,1000,4
14_casillas_tseltal_2015_29,33,tz'i,29,14,dog,distractor,77,22,0.7777777777777778,NA,2,1,NA,165,2,641.6666666666667,1016.6666666666667,2440,4
14_casillas_tseltal_2015_29,34,tomut,29,14,egg,target,40,61,0.39603960396039606,NA,1,NA,0,NA,1,666.6666666666667,666.6666666666667,1600,4
14_casillas_tseltal_2015_29,35,p'in,29,14,pot-tseltal,distractor,18,85,0.17475728155339806,NA,1,1,NA,815,2,300,300,720,4
14_casillas_tseltal_2015_29,36,tzek',29,14,skirt-tseltal,distractor,67,36,0.6504854368932039,NA,1,1,NA,665,2,1116.6666666666667,1116.6666666666667,2680,4
14_casillas_tseltal_2015_29,37,ich,29,14,chile,distractor,69,34,0.6699029126213593,NA,1,1,NA,340,1,1150,1150,2760,4
14_casillas_tseltal_2015_29,38,mes,29,14,broom,distractor,93,2,0.9789473684210527,NA,1,1,NA,340,0,1550,1550,3720,4
14_casillas_tseltal_2015_29,39,machit,29,14,machete,target,47,56,0.4563106796116505,NA,1,NA,0,NA,1,650,650,1560,4
14_casillas_tseltal_2015_29,40,si',29,14,firewood,target,83,21,0.7980769230769231,NA,1,NA,1,NA,1,1383.3333333333335,1383.3333333333335,3320,4
15_casillas_tseltal_2015_39,1,lo'bal,39,15,banana,target,58,43,0.5742574257425742,NA,3,NA,0,NA,2,322.22222222222223,533.3333333333334,1280,14
15_casillas_tseltal_2015_39,8,xila,39,15,chair,target,14,90,0.1346153846153846,NA,1,NA,0,NA,1,233.33333333333334,233.33333333333334,560,14
15_casillas_tseltal_2015_39,13,wa,39,15,tortilla,distractor,16,87,0.1553398058252427,NA,1,1,NA,465,2,266.6666666666667,266.6666666666667,640,14
15_casillas_tseltal_2015_39,14,moch,39,15,basket-tseltal,target,106,0,1,NA,1,NA,1,NA,0,1766.6666666666667,1766.6666666666667,4240,14
15_casillas_tseltal_2015_39,15,pelota,39,15,ball,distractor,0,106,0,NA,NA,0,NA,NA,0,NA,NA,NA,14
15_casillas_tseltal_2015_39,16,chojak',39,15,purse-tseltal,distractor,73,28,0.7227722772277227,NA,1,1,NA,265,1,1216.6666666666667,1216.6666666666667,2920,14
15_casillas_tseltal_2015_39,17,baso,39,15,cup,target,42,59,0.4158415841584158,NA,1,NA,0,NA,1,583.3333333333334,583.3333333333334,1400,14
15_casillas_tseltal_2015_39,18,nichim,39,15,flower,target,67,28,0.7052631578947368,NA,1,NA,1,NA,1,1116.6666666666667,1116.6666666666667,2680,14
15_casillas_tseltal_2015_39,19,balti,39,15,bucket,distractor,65,32,0.6701030927835051,NA,1,1,NA,365,1,1000.0000000000001,1000.0000000000001,2400,14
15_casillas_tseltal_2015_39,20,mut,39,15,chicken,distractor,57,43,0.57,NA,2,1,NA,615,3,475,300,1560,14
15_casillas_tseltal_2015_39,21,k'ajk',39,15,fire,distractor,44,58,0.43137254901960786,NA,2,1,NA,65,1,366.6666666666667,500.00000000000006,1200,14
15_casillas_tseltal_2015_39,22,mexa,39,15,table,distractor,30,72,0.29411764705882354,NA,1,0,NA,NA,1,500.00000000000006,500.00000000000006,1200,14
15_casillas_tseltal_2015_39,23,xawin,39,15,cat,target,39,66,0.37142857142857144,NA,2,NA,0,NA,2,325,450.00000000000006,1080,14
15_casillas_tseltal_2015_39,24,ja',39,15,water,distractor,36,55,0.3956043956043956,NA,1,1,NA,65,1,600,600,1440,14
15_casillas_tseltal_2015_39,25,ixim,39,15,corn,target,35,62,0.36082474226804123,NA,2,NA,0,NA,2,291.6666666666667,266.6666666666667,760,14
15_casillas_tseltal_2015_39,26,karo,39,15,car,target,106,0,1,NA,1,NA,1,NA,0,1766.6666666666667,1766.6666666666667,4240,14
15_casillas_tseltal_2015_39,27,bojch,39,15,bowl-tseltal,distractor,92,13,0.8761904761904762,NA,1,1,NA,365,1,1533.3333333333335,1533.3333333333335,3680,14
15_casillas_tseltal_2015_39,28,na,39,15,house,distractor,96,6,0.9411764705882353,NA,1,1,NA,265,0,1600,1600,3840,14
15_casillas_tseltal_2015_39,29,te,39,15,tree,distractor,64,34,0.6530612244897959,NA,1,1,NA,215,1,1066.6666666666667,1066.6666666666667,2560,14
15_casillas_tseltal_2015_39,30,waybal,39,15,bed,target,69,29,0.7040816326530612,NA,2,NA,0,NA,2,575,716.6666666666667,1720,14
15_casillas_tseltal_2015_39,31,t'inel,39,15,doorway,distractor,31,67,0.3163265306122449,NA,1,1,NA,140,1,366.6666666666667,366.6666666666667,880,14
15_casillas_tseltal_2015_39,32,chenek',39,15,bean,target,6,98,0.057692307692307696,NA,NA,NA,0,NA,0,NA,NA,NA,14
15_casillas_tseltal_2015_39,33,tz'i,39,15,dog,target,106,0,1,NA,1,NA,1,NA,0,1766.6666666666667,1766.6666666666667,4240,14
15_casillas_tseltal_2015_39,34,tomut,39,15,egg,distractor,73,29,0.7156862745098039,NA,1,1,NA,265,1,1216.6666666666667,1216.6666666666667,2920,14
15_casillas_tseltal_2015_39,35,p'in,39,15,pot-tseltal,distractor,95,10,0.9047619047619048,NA,1,1,NA,290,0,1583.3333333333335,1583.3333333333335,3800,14
15_casillas_tseltal_2015_39,36,tzek',39,15,skirt-tseltal,distractor,5,78,0.060240963855421686,NA,NA,0,NA,NA,0,NA,NA,NA,14
15_casillas_tseltal_2015_39,37,ich,39,15,chile,target,74,31,0.7047619047619048,NA,2,NA,0,NA,2,616.6666666666667,883.3333333333334,2120,14
15_casillas_tseltal_2015_39,38,mes,39,15,broom,distractor,79,26,0.7523809523809524,NA,1,1,NA,90,1,1316.6666666666667,1316.6666666666667,3160,14
15_casillas_tseltal_2015_39,39,machit,39,15,machete,distractor,63,37,0.63,NA,1,1,NA,490,2,1016.6666666666667,1016.6666666666667,2440,14
15_casillas_tseltal_2015_39,40,si',39,15,firewood,target,61,32,0.6559139784946236,NA,2,NA,0,NA,2,508.33333333333337,666.6666666666667,1600,14
16_casillas_tseltal_2015_41,1,lo'bal,41,16,banana,target,106,0,1,NA,1,NA,1,NA,0,1766.6666666666667,1766.6666666666667,4240,16
16_casillas_tseltal_2015_41,8,xila,41,16,chair,target,54,48,0.5294117647058824,NA,1,NA,1,NA,1,900.0000000000001,900.0000000000001,2160,16
16_casillas_tseltal_2015_41,13,wa,41,16,tortilla,distractor,0,106,0,NA,NA,0,NA,NA,0,NA,NA,NA,16
16_casillas_tseltal_2015_41,14,moch,41,16,basket-tseltal,distractor,84,21,0.8,NA,1,1,NA,565,1,1400,1400,3360,16
16_casillas_tseltal_2015_41,15,pelota,41,16,ball,target,21,84,0.2,NA,1,NA,0,NA,1,350,350,840,16
16_casillas_tseltal_2015_41,16,chojak',41,16,purse-tseltal,target,69,36,0.6571428571428571,NA,1,NA,1,NA,1,1150,1150,2760,16
16_casillas_tseltal_2015_41,17,baso,41,16,cup,target,71,29,0.71,NA,2,NA,0,NA,2,591.6666666666667,666.6666666666667,1600,16
16_casillas_tseltal_2015_41,18,nichim,41,16,flower,target,95,9,0.9134615384615384,NA,1,NA,0,NA,0,1450,1450,3480,16
16_casillas_tseltal_2015_41,19,balti,41,16,bucket,target,106,0,1,NA,1,NA,1,NA,0,1766.6666666666667,1766.6666666666667,4240,16
16_casillas_tseltal_2015_41,20,mut,41,16,chicken,distractor,45,58,0.4368932038834951,NA,1,1,NA,90,1,750,750,1800,16
16_casillas_tseltal_2015_41,21,k'ajk',41,16,fire,target,18,87,0.17142857142857143,NA,1,NA,0,NA,1,300,300,720,16
16_casillas_tseltal_2015_41,22,mexa,41,16,table,target,22,80,0.21568627450980393,NA,1,NA,0,NA,1,366.6666666666667,366.6666666666667,880,16
16_casillas_tseltal_2015_41,23,xawin,41,16,cat,target,106,0,1,NA,1,NA,1,NA,0,1766.6666666666667,1766.6666666666667,4240,16
16_casillas_tseltal_2015_41,24,ja',41,16,water,distractor,60,45,0.5714285714285714,NA,1,1,NA,1165,1,1000.0000000000001,1000.0000000000001,2400,16
16_casillas_tseltal_2015_41,25,ixim,41,16,corn,target,32,72,0.3076923076923077,NA,1,NA,0,NA,1,533.3333333333334,533.3333333333334,1280,16
16_casillas_tseltal_2015_41,26,karo,41,16,car,target,106,0,1,NA,1,NA,1,NA,0,1766.6666666666667,1766.6666666666667,4240,16
16_casillas_tseltal_2015_41,27,bojch,41,16,bowl-tseltal,target,29,42,0.4084507042253521,NA,1,NA,0,NA,1,433.33333333333337,433.33333333333337,1040,16
16_casillas_tseltal_2015_41,28,na,41,16,house,target,106,0,1,NA,1,NA,1,NA,0,1766.6666666666667,1766.6666666666667,4240,16
16_casillas_tseltal_2015_41,29,te,41,16,tree,distractor,76,29,0.7238095238095238,NA,1,1,NA,765,1,1266.6666666666667,1266.6666666666667,3040,16
16_casillas_tseltal_2015_41,30,waybal,41,16,bed,target,106,0,1,NA,1,NA,1,NA,0,1766.6666666666667,1766.6666666666667,4240,16
16_casillas_tseltal_2015_41,31,t'inel,41,16,doorway,distractor,69,29,0.7040816326530612,NA,2,1,NA,340,2,575,583.3333333333334,1400,16
16_casillas_tseltal_2015_41,32,chenek',41,16,bean,target,21,84,0.2,NA,1,NA,0,NA,1,350,350,840,16
16_casillas_tseltal_2015_41,33,tz'i,41,16,dog,target,71,30,0.7029702970297029,NA,2,NA,1,NA,2,591.6666666666667,983.3333333333334,2360,16
16_casillas_tseltal_2015_41,34,tomut,41,16,egg,distractor,80,24,0.7692307692307693,NA,1,1,NA,665,1,1333.3333333333335,1333.3333333333335,3200,16
16_casillas_tseltal_2015_41,35,p'in,41,16,pot-tseltal,target,106,0,1,NA,1,NA,1,NA,0,1766.6666666666667,1766.6666666666667,4240,16
16_casillas_tseltal_2015_41,36,tzek',41,16,skirt-tseltal,distractor,26,77,0.2524271844660194,NA,1,0,NA,NA,1,433.33333333333337,433.33333333333337,1040,16
16_casillas_tseltal_2015_41,37,ich,41,16,chile,target,46,56,0.45098039215686275,NA,1,NA,0,NA,1,733.3333333333334,733.3333333333334,1760,16
16_casillas_tseltal_2015_41,38,mes,41,16,broom,target,79,23,0.7745098039215687,NA,1,NA,0,NA,1,1283.3333333333335,1283.3333333333335,3080,16
16_casillas_tseltal_2015_41,39,machit,41,16,machete,distractor,92,10,0.9019607843137255,NA,2,1,NA,290,0,766.6666666666667,700,2000,16
16_casillas_tseltal_2015_41,40,si',41,16,firewood,target,106,0,1,NA,1,NA,1,NA,0,1766.6666666666667,1766.6666666666667,4240,16
17_casillas_tseltal_2015_32,1,lo'bal,32,17,banana,target,72,34,0.6792452830188679,NA,1,NA,1,NA,1,1200,1200,2880,7
17_casillas_tseltal_2015_32,8,xila,32,17,chair,target,71,32,0.6893203883495146,NA,1,NA,0,NA,1,1000.0000000000001,1000.0000000000001,2400,7
17_casillas_tseltal_2015_32,13,wa,32,17,tortilla,neither,71,29,0.71,NA,2,NA,NA,NA,2,591.6666666666667,400,1880,7
17_casillas_tseltal_2015_32,14,moch,32,17,basket-tseltal,target,106,0,1,NA,1,NA,1,NA,0,1766.6666666666667,1766.6666666666667,4240,7
17_casillas_tseltal_2015_32,15,pelota,32,17,ball,distractor,18,87,0.17142857142857143,NA,NA,1,NA,265,0,NA,NA,NA,7
17_casillas_tseltal_2015_32,16,chojak',32,17,purse-tseltal,distractor,82,22,0.7884615384615384,NA,1,1,NA,615,1,1366.6666666666667,1366.6666666666667,3280,7
17_casillas_tseltal_2015_32,17,baso,32,17,cup,distractor,60,45,0.5714285714285714,NA,1,1,NA,1165,1,1000.0000000000001,1000.0000000000001,2400,7
17_casillas_tseltal_2015_32,18,nichim,32,17,flower,target,59,45,0.5673076923076923,NA,1,NA,1,NA,1,983.3333333333334,983.3333333333334,2360,7
17_casillas_tseltal_2015_32,19,balti,32,17,bucket,target,106,0,1,NA,1,NA,1,NA,0,1766.6666666666667,1766.6666666666667,4240,7
17_casillas_tseltal_2015_32,20,mut,32,17,chicken,target,67,39,0.6320754716981132,NA,1,NA,1,NA,1,1116.6666666666667,1116.6666666666667,2680,7
17_casillas_tseltal_2015_32,21,k'ajk',32,17,fire,target,106,0,1,NA,1,NA,1,NA,0,1766.6666666666667,1766.6666666666667,4240,7
17_casillas_tseltal_2015_32,22,mexa,32,17,table,distractor,0,98,0,NA,NA,0,NA,NA,0,NA,NA,NA,7
17_casillas_tseltal_2015_32,23,xawin,32,17,cat,target,106,0,1,NA,1,NA,1,NA,0,1766.6666666666667,1766.6666666666667,4240,7
17_casillas_tseltal_2015_32,24,ja',32,17,water,target,53,50,0.5145631067961165,NA,1,NA,0,NA,1,883.3333333333334,883.3333333333334,2120,7
17_casillas_tseltal_2015_32,25,ixim,32,17,corn,target,46,56,0.45098039215686275,NA,1,NA,0,NA,1,766.6666666666667,766.6666666666667,1840,7
17_casillas_tseltal_2015_32,26,karo,32,17,car,target,70,34,0.6730769230769231,NA,2,NA,0,NA,2,583.3333333333334,900.0000000000001,2160,7
17_casillas_tseltal_2015_32,27,bojch,32,17,bowl-tseltal,target,46,56,0.45098039215686275,NA,1,NA,0,NA,2,766.6666666666667,766.6666666666667,1840,7
17_casillas_tseltal_2015_32,28,na,32,17,house,distractor,85,21,0.8018867924528302,NA,1,1,NA,540,1,1416.6666666666667,1416.6666666666667,3400,7
17_casillas_tseltal_2015_32,29,te,32,17,tree,distractor,74,28,0.7254901960784313,NA,2,1,NA,415,3,616.6666666666667,350,2120,7
17_casillas_tseltal_2015_32,30,waybal,32,17,bed,distractor,75,30,0.7142857142857143,NA,1,1,NA,465,2,1250,1250,3000,7
17_casillas_tseltal_2015_32,31,t'inel,32,17,doorway,target,101,0,1,NA,1,NA,1,NA,0,1566.6666666666667,1566.6666666666667,3760,7
17_casillas_tseltal_2015_32,32,chenek',32,17,bean,distractor,0,106,0,NA,NA,0,NA,NA,0,NA,NA,NA,7
17_casillas_tseltal_2015_32,33,tz'i,32,17,dog,distractor,84,16,0.84,NA,1,1,NA,415,1,1400,966.6666666666667,3360,7
17_casillas_tseltal_2015_32,34,tomut,32,17,egg,target,90,14,0.8653846153846154,NA,2,NA,0,NA,2,750,583.3333333333334,2200,7
17_casillas_tseltal_2015_32,35,p'in,32,17,pot-tseltal,target,87,0,1,NA,1,NA,1,NA,0,1416.6666666666667,1416.6666666666667,3400,7
17_casillas_tseltal_2015_32,36,tzek',32,17,skirt-tseltal,target,54,50,0.5192307692307693,NA,2,NA,0,NA,2,450,700,1680,7
17_casillas_tseltal_2015_32,37,ich,32,17,chile,target,37,65,0.3627450980392157,NA,1,NA,0,NA,1,500.00000000000006,500.00000000000006,1200,7
17_casillas_tseltal_2015_32,38,mes,32,17,broom,distractor,80,24,0.7692307692307693,NA,1,1,NA,665,1,1333.3333333333335,1333.3333333333335,3200,7
17_casillas_tseltal_2015_32,39,machit,32,17,machete,distractor,61,42,0.5922330097087378,NA,1,1,NA,540,2,1016.6666666666667,1016.6666666666667,2440,7
17_casillas_tseltal_2015_32,40,si',32,17,firewood,target,100,0,1,NA,2,NA,1,NA,0,833.3333333333334,1066.6666666666667,2560,7
18_casillas_tseltal_2015_32,1,lo'bal,32,18,banana,target,59,36,0.6210526315789474,NA,1,NA,1,NA,1,983.3333333333334,983.3333333333334,2360,7
18_casillas_tseltal_2015_32,8,xila,32,18,chair,neither,28,43,0.39436619718309857,NA,1,NA,NA,NA,2,466.6666666666667,466.6666666666667,1120,7
18_casillas_tseltal_2015_32,13,wa,32,18,tortilla,distractor,42,58,0.42,NA,1,1,NA,415,2,700,700,1680,7
18_casillas_tseltal_2015_32,14,moch,32,18,basket-tseltal,distractor,77,23,0.77,NA,1,1,NA,415,1,1283.3333333333335,1283.3333333333335,3080,7
18_casillas_tseltal_2015_32,15,pelota,32,18,ball,distractor,52,48,0.52,NA,1,1,NA,1365,1,866.6666666666667,866.6666666666667,2080,7
18_casillas_tseltal_2015_32,16,chojak',32,18,purse-tseltal,target,72,24,0.75,NA,2,NA,1,NA,2,600,983.3333333333334,2360,7
18_casillas_tseltal_2015_32,17,baso,32,18,cup,distractor,100,5,0.9523809523809523,NA,1,1,NA,165,0,1666.6666666666667,1666.6666666666667,4000,7
18_casillas_tseltal_2015_32,18,nichim,32,18,flower,target,106,0,1,NA,1,NA,1,NA,0,1766.6666666666667,1766.6666666666667,4240,7
18_casillas_tseltal_2015_32,19,balti,32,18,bucket,target,106,0,1,NA,1,NA,1,NA,0,1766.6666666666667,1766.6666666666667,4240,7
18_casillas_tseltal_2015_32,20,mut,32,18,chicken,distractor,38,61,0.3838383838383838,NA,1,0,NA,NA,1,633.3333333333334,633.3333333333334,1520,7
18_casillas_tseltal_2015_32,21,k'ajk',32,18,fire,distractor,80,22,0.7843137254901961,NA,1,1,NA,665,1,1333.3333333333335,1333.3333333333335,3200,7
18_casillas_tseltal_2015_32,22,mexa,32,18,table,target,61,36,0.6288659793814433,NA,2,NA,0,NA,2,508.33333333333337,583.3333333333334,1400,7
18_casillas_tseltal_2015_32,23,xawin,32,18,cat,distractor,74,26,0.74,NA,2,1,NA,215,2,616.6666666666667,833.3333333333334,2000,7
18_casillas_tseltal_2015_32,24,ja',32,18,water,target,66,34,0.66,NA,2,NA,0,NA,2,550.0000000000001,850.0000000000001,2040,7
18_casillas_tseltal_2015_32,25,ixim,32,18,corn,target,67,35,0.6568627450980392,NA,2,NA,0,NA,2,558.3333333333334,450.00000000000006,1600,7
18_casillas_tseltal_2015_32,26,karo,32,18,car,target,74,27,0.7326732673267327,NA,1,NA,1,NA,1,1200,1200,2880,7
18_casillas_tseltal_2015_32,28,na,32,18,house,neither,37,48,0.43529411764705883,NA,2,NA,NA,NA,2,308.33333333333337,233.33333333333334,920,7
18_casillas_tseltal_2015_32,29,te,32,18,tree,distractor,38,61,0.3838383838383838,NA,1,1,NA,865,2,633.3333333333334,633.3333333333334,1520,7
18_casillas_tseltal_2015_32,30,waybal,32,18,bed,target,2,103,0.01904761904761905,NA,NA,NA,0,NA,0,NA,NA,NA,7
18_casillas_tseltal_2015_32,31,t'inel,32,18,doorway,target,106,0,1,NA,1,NA,1,NA,0,1766.6666666666667,1766.6666666666667,4240,7
18_casillas_tseltal_2015_32,32,chenek',32,18,bean,distractor,0,106,0,NA,NA,0,NA,NA,0,NA,NA,NA,7
18_casillas_tseltal_2015_32,33,tz'i,32,18,dog,distractor,32,68,0.32,NA,1,1,NA,1015,2,400,400,960,7
18_casillas_tseltal_2015_32,34,tomut,32,18,egg,distractor,39,62,0.38613861386138615,NA,1,0,NA,NA,1,650,650,1560,7
18_casillas_tseltal_2015_32,35,p'in,32,18,pot-tseltal,distractor,0,84,0,NA,NA,0,NA,NA,0,NA,NA,NA,7
18_casillas_tseltal_2015_32,36,tzek',32,18,skirt-tseltal,distractor,30,59,0.33707865168539325,NA,1,0,NA,NA,1,500.00000000000006,500.00000000000006,1200,7
18_casillas_tseltal_2015_32,37,ich,32,18,chile,distractor,72,31,0.6990291262135923,NA,1,1,NA,65,1,1200,1200,2880,7
18_casillas_tseltal_2015_32,38,mes,32,18,broom,target,106,0,1,NA,1,NA,1,NA,0,1766.6666666666667,1766.6666666666667,4240,7
18_casillas_tseltal_2015_32,39,machit,32,18,machete,distractor,73,27,0.73,NA,1,1,NA,490,1,1183.3333333333335,1183.3333333333335,2840,7
18_casillas_tseltal_2015_32,40,si',32,18,firewood,distractor,64,25,0.7191011235955056,NA,1,1,NA,65,1,900.0000000000001,900.0000000000001,2160,7
19_casillas_tseltal_2015_35,1,lo'bal,35,19,banana,distractor,84,19,0.8155339805825242,NA,1,1,NA,565,1,1400,1400,3360,10
19_casillas_tseltal_2015_35,8,xila,35,19,chair,target,83,21,0.7980769230769231,NA,1,NA,1,NA,1,1383.3333333333335,1383.3333333333335,3320,10
19_casillas_tseltal_2015_35,13,wa,35,19,tortilla,distractor,0,95,0,NA,NA,0,NA,NA,0,NA,NA,NA,10
19_casillas_tseltal_2015_35,14,moch,35,19,basket-tseltal,distractor,0,106,0,NA,NA,0,NA,NA,0,NA,NA,NA,10
19_casillas_tseltal_2015_35,15,pelota,35,19,ball,distractor,0,106,0,NA,NA,0,NA,NA,0,NA,NA,NA,10
19_casillas_tseltal_2015_35,16,chojak',35,19,purse-tseltal,distractor,63,40,0.6116504854368932,NA,1,1,NA,1090,1,1050,1050,2520,10
19_casillas_tseltal_2015_35,17,baso,35,19,cup,target,12,90,0.11764705882352941,NA,NA,NA,0,NA,0,NA,NA,NA,10
19_casillas_tseltal_2015_35,18,nichim,35,19,flower,distractor,0,106,0,NA,NA,0,NA,NA,0,NA,NA,NA,10
19_casillas_tseltal_2015_35,19,balti,35,19,bucket,distractor,0,106,0,NA,NA,0,NA,NA,0,NA,NA,NA,10
19_casillas_tseltal_2015_35,20,mut,35,19,chicken,target,54,48,0.5294117647058824,NA,1,NA,1,NA,1,900.0000000000001,900.0000000000001,2160,10
19_casillas_tseltal_2015_35,21,k'ajk',35,19,fire,distractor,85,19,0.8173076923076923,NA,1,1,NA,540,1,1416.6666666666667,1416.6666666666667,3400,10
19_casillas_tseltal_2015_35,22,mexa,35,19,table,distractor,87,19,0.8207547169811321,NA,1,1,NA,490,1,1450,1450,3480,10
19_casillas_tseltal_2015_35,23,xawin,35,19,cat,distractor,76,29,0.7238095238095238,NA,1,1,NA,765,1,1266.6666666666667,1266.6666666666667,3040,10
19_casillas_tseltal_2015_35,24,ja',35,19,water,target,106,0,1,NA,1,NA,1,NA,0,1766.6666666666667,1766.6666666666667,4240,10
19_casillas_tseltal_2015_35,25,ixim,35,19,corn,target,16,88,0.15384615384615385,NA,1,NA,0,NA,1,266.6666666666667,266.6666666666667,640,10
19_casillas_tseltal_2015_35,26,karo,35,19,car,target,85,20,0.8095238095238095,NA,1,NA,1,NA,1,1416.6666666666667,1416.6666666666667,3400,10
19_casillas_tseltal_2015_35,27,bojch,35,19,bowl-tseltal,neither,24,32,0.42857142857142855,NA,1,NA,NA,NA,2,400,400,960,10
19_casillas_tseltal_2015_35,28,na,35,19,house,target,74,21,0.7789473684210526,NA,2,NA,1,NA,2,616.6666666666667,966.6666666666667,2320,10
19_casillas_tseltal_2015_35,29,te,35,19,tree,neither,79,0,1,NA,1,NA,NA,NA,0,1316.6666666666667,1316.6666666666667,3160,10
19_casillas_tseltal_2015_35,30,waybal,35,19,bed,target,11,84,0.11578947368421053,NA,NA,NA,0,NA,0,NA,NA,NA,10
19_casillas_tseltal_2015_35,31,t'inel,35,19,doorway,target,65,39,0.625,NA,2,NA,0,NA,3,541.6666666666667,300,1880,10
19_casillas_tseltal_2015_35,32,chenek',35,19,bean,target,89,15,0.8557692307692307,NA,2,NA,0,NA,2,741.6666666666667,433.33333333333337,2520,10
19_casillas_tseltal_2015_35,33,tz'i,35,19,dog,neither,12,72,0.14285714285714285,NA,1,NA,NA,NA,1,200,200,480,10
19_casillas_tseltal_2015_35,34,tomut,35,19,egg,distractor,0,106,0,NA,NA,0,NA,NA,0,NA,NA,NA,10
19_casillas_tseltal_2015_35,36,tzek',35,19,skirt-tseltal,target,73,31,0.7019230769230769,NA,2,NA,0,NA,2,608.3333333333334,700,1680,10
19_casillas_tseltal_2015_35,37,ich,35,19,chile,target,72,0,1,NA,1,NA,1,NA,0,1200,1200,2880,10
19_casillas_tseltal_2015_35,38,mes,35,19,broom,distractor,59,44,0.5728155339805825,NA,1,1,NA,465,2,983.3333333333334,983.3333333333334,2360,10
19_casillas_tseltal_2015_35,39,machit,35,19,machete,target,22,82,0.21153846153846154,NA,1,NA,0,NA,1,366.6666666666667,366.6666666666667,880,10
19_casillas_tseltal_2015_35,40,si',35,19,firewood,target,106,0,1,NA,1,NA,1,NA,0,1766.6666666666667,1766.6666666666667,4240,10
20_casillas_tseltal_2015_36,1,lo'bal,36,20,banana,target,106,0,1,NA,1,NA,1,NA,0,1766.6666666666667,1766.6666666666667,4240,11
20_casillas_tseltal_2015_36,8,xila,36,20,chair,distractor,35,67,0.3431372549019608,NA,1,1,NA,1215,2,583.3333333333334,583.3333333333334,1400,11
20_casillas_tseltal_2015_36,13,wa,36,20,tortilla,distractor,8,94,0.0784313725490196,NA,NA,1,NA,615,0,NA,NA,NA,11
20_casillas_tseltal_2015_36,14,moch,36,20,basket-tseltal,distractor,88,16,0.8461538461538461,NA,1,1,NA,465,1,1466.6666666666667,1466.6666666666667,3520,11
20_casillas_tseltal_2015_36,15,pelota,36,20,ball,distractor,50,53,0.4854368932038835,NA,1,1,NA,1415,1,833.3333333333334,833.3333333333334,2000,11
20_casillas_tseltal_2015_36,16,chojak',36,20,purse-tseltal,distractor,92,13,0.8761904761904762,NA,1,1,NA,365,1,1533.3333333333335,1533.3333333333335,3680,11
20_casillas_tseltal_2015_36,17,baso,36,20,cup,distractor,59,43,0.5784313725490197,NA,1,1,NA,940,1,983.3333333333334,983.3333333333334,2360,11
20_casillas_tseltal_2015_36,18,nichim,36,20,flower,target,82,23,0.780952380952381,NA,1,NA,1,NA,1,1366.6666666666667,1366.6666666666667,3280,11
20_casillas_tseltal_2015_36,19,balti,36,20,bucket,target,60,42,0.5882352941176471,NA,2,NA,0,NA,2,500.00000000000006,483.33333333333337,1240,11
20_casillas_tseltal_2015_36,20,mut,36,20,chicken,target,40,59,0.40404040404040403,NA,1,NA,0,NA,2,666.6666666666667,666.6666666666667,1600,11
20_casillas_tseltal_2015_36,21,k'ajk',36,20,fire,target,64,36,0.64,NA,1,NA,0,NA,1,883.3333333333334,883.3333333333334,2120,11
20_casillas_tseltal_2015_36,22,mexa,36,20,table,target,80,22,0.7843137254901961,NA,2,NA,0,NA,2,666.6666666666667,316.6666666666667,2440,11
20_casillas_tseltal_2015_36,23,xawin,36,20,cat,distractor,29,73,0.28431372549019607,NA,1,1,NA,340,1,483.33333333333337,483.33333333333337,1160,11
20_casillas_tseltal_2015_36,24,ja',36,20,water,target,83,20,0.8058252427184466,NA,1,NA,1,NA,1,1383.3333333333335,1383.3333333333335,3320,11
20_casillas_tseltal_2015_36,25,ixim,36,20,corn,target,24,80,0.23076923076923078,NA,1,NA,0,NA,1,400,400,960,11
20_casillas_tseltal_2015_36,26,karo,36,20,car,distractor,95,8,0.9223300970873787,NA,1,1,NA,290,0,1583.3333333333335,1583.3333333333335,3800,11
20_casillas_tseltal_2015_36,27,bojch,36,20,bowl-tseltal,target,17,81,0.17346938775510204,NA,1,NA,0,NA,2,233.33333333333334,233.33333333333334,560,11
20_casillas_tseltal_2015_36,28,na,36,20,house,target,69,29,0.7040816326530612,NA,1,NA,1,NA,1,1150,1150,2760,11
20_casillas_tseltal_2015_36,29,te,36,20,tree,distractor,63,40,0.6116504854368932,NA,1,1,NA,1090,1,1050,1050,2520,11
20_casillas_tseltal_2015_36,30,waybal,36,20,bed,target,102,0,1,NA,1,NA,1,NA,0,1633.3333333333335,1633.3333333333335,3920,11
20_casillas_tseltal_2015_36,31,t'inel,36,20,doorway,distractor,24,79,0.23300970873786409,NA,1,1,NA,340,1,400,400,960,11
20_casillas_tseltal_2015_36,32,chenek',36,20,bean,distractor,46,54,0.46,NA,1,1,NA,865,2,766.6666666666667,766.6666666666667,1840,11
20_casillas_tseltal_2015_36,33,tz'i,36,20,dog,distractor,88,16,0.8461538461538461,NA,1,1,NA,465,1,1466.6666666666667,1466.6666666666667,3520,11
20_casillas_tseltal_2015_36,34,tomut,36,20,egg,target,46,58,0.4423076923076923,NA,1,NA,0,NA,1,666.6666666666667,666.6666666666667,1600,11
20_casillas_tseltal_2015_36,35,p'in,36,20,pot-tseltal,target,63,37,0.63,NA,1,NA,0,NA,2,883.3333333333334,883.3333333333334,2120,11
20_casillas_tseltal_2015_36,36,tzek',36,20,skirt-tseltal,distractor,82,22,0.7884615384615384,NA,1,1,NA,615,1,1366.6666666666667,1366.6666666666667,3280,11
20_casillas_tseltal_2015_36,37,ich,36,20,chile,distractor,54,42,0.5625,NA,1,1,NA,265,1,900.0000000000001,900.0000000000001,2160,11
20_casillas_tseltal_2015_36,38,mes,36,20,broom,target,56,48,0.5384615384615384,NA,1,NA,1,NA,1,933.3333333333334,933.3333333333334,2240,11
20_casillas_tseltal_2015_36,39,machit,36,20,machete,distractor,35,68,0.33980582524271846,NA,1,1,NA,665,2,583.3333333333334,583.3333333333334,1400,11
20_casillas_tseltal_2015_36,40,si',36,20,firewood,target,77,28,0.7333333333333333,NA,1,NA,1,NA,1,1283.3333333333335,1283.3333333333335,3080,11
21_casillas_tseltal_2015_26,1,lo'bal,26,21,banana,target,74,29,0.7184466019417476,NA,2,NA,1,NA,2,616.6666666666667,1016.6666666666667,2440,1
21_casillas_tseltal_2015_26,8,xila,26,21,chair,distractor,0,103,0,NA,NA,0,NA,NA,0,NA,NA,NA,1
21_casillas_tseltal_2015_26,13,wa,26,21,tortilla,target,66,36,0.6470588235294118,NA,1,NA,1,NA,1,933.3333333333334,933.3333333333334,2240,1
21_casillas_tseltal_2015_26,14,moch,26,21,basket-tseltal,target,104,0,1,NA,2,NA,1,NA,0,866.6666666666667,1200,2880,1
21_casillas_tseltal_2015_26,15,pelota,26,21,ball,target,106,0,1,NA,1,NA,1,NA,0,1766.6666666666667,1766.6666666666667,4240,1
21_casillas_tseltal_2015_26,16,chojak',26,21,purse-tseltal,target,101,0,1,NA,2,NA,1,NA,0,841.6666666666667,1200,2880,1
21_casillas_tseltal_2015_26,17,baso,26,21,cup,distractor,0,103,0,NA,NA,0,NA,NA,0,NA,NA,NA,1
21_casillas_tseltal_2015_26,18,nichim,26,21,flower,target,106,0,1,NA,1,NA,1,NA,0,1766.6666666666667,1766.6666666666667,4240,1
21_casillas_tseltal_2015_26,19,balti,26,21,bucket,target,106,0,1,NA,1,NA,1,NA,0,1766.6666666666667,1766.6666666666667,4240,1
21_casillas_tseltal_2015_26,20,mut,26,21,chicken,target,74,29,0.7184466019417476,NA,2,NA,0,NA,2,616.6666666666667,433.33333333333337,1920,1
21_casillas_tseltal_2015_26,21,k'ajk',26,21,fire,target,27,77,0.25961538461538464,NA,1,NA,0,NA,1,450.00000000000006,450.00000000000006,1080,1
21_casillas_tseltal_2015_26,22,mexa,26,21,table,distractor,0,106,0,NA,NA,0,NA,NA,0,NA,NA,NA,1
21_casillas_tseltal_2015_26,23,xawin,26,21,cat,target,106,0,1,NA,1,NA,1,NA,0,1766.6666666666667,1766.6666666666667,4240,1
21_casillas_tseltal_2015_26,24,ja',26,21,water,target,44,56,0.44,NA,1,NA,0,NA,1,733.3333333333334,733.3333333333334,1760,1
21_casillas_tseltal_2015_26,25,ixim,26,21,corn,target,104,0,1,NA,1,NA,1,NA,0,1733.3333333333335,1733.3333333333335,4160,1
21_casillas_tseltal_2015_26,26,karo,26,21,car,distractor,61,43,0.5865384615384616,NA,1,1,NA,1140,1,1016.6666666666667,1016.6666666666667,2440,1
21_casillas_tseltal_2015_26,27,bojch,26,21,bowl-tseltal,target,72,0,1,NA,2,NA,1,NA,0,600,533.3333333333334,1600,1
21_casillas_tseltal_2015_26,28,na,26,21,house,target,106,0,1,NA,1,NA,1,NA,0,1766.6666666666667,1766.6666666666667,4240,1
21_casillas_tseltal_2015_26,29,te,26,21,tree,target,106,0,1,NA,1,NA,1,NA,0,1766.6666666666667,1766.6666666666667,4240,1
21_casillas_tseltal_2015_26,30,waybal,26,21,bed,target,106,0,1,NA,1,NA,1,NA,0,1766.6666666666667,1766.6666666666667,4240,1
21_casillas_tseltal_2015_26,31,t'inel,26,21,doorway,distractor,69,35,0.6634615384615384,NA,1,1,NA,940,1,1150,1150,2760,1
21_casillas_tseltal_2015_26,32,chenek',26,21,bean,distractor,0,106,0,NA,NA,0,NA,NA,0,NA,NA,NA,1
21_casillas_tseltal_2015_26,33,tz'i,26,21,dog,distractor,70,34,0.6730769230769231,NA,1,1,NA,365,2,1133.3333333333335,1133.3333333333335,2720,1
21_casillas_tseltal_2015_26,34,tomut,26,21,egg,target,102,0,1,NA,2,NA,1,NA,0,850.0000000000001,1033.3333333333335,2480,1
21_casillas_tseltal_2015_26,35,p'in,26,21,pot-tseltal,distractor,0,106,0,NA,NA,0,NA,NA,0,NA,NA,NA,1
21_casillas_tseltal_2015_26,36,tzek',26,21,skirt-tseltal,distractor,0,106,0,NA,NA,0,NA,NA,0,NA,NA,NA,1
21_casillas_tseltal_2015_26,37,ich,26,21,chile,distractor,0,100,0,NA,NA,0,NA,NA,0,NA,NA,NA,1
21_casillas_tseltal_2015_26,38,mes,26,21,broom,target,106,0,1,NA,1,NA,1,NA,0,1766.6666666666667,1766.6666666666667,4240,1
21_casillas_tseltal_2015_26,39,machit,26,21,machete,distractor,0,106,0,NA,NA,0,NA,NA,0,NA,NA,NA,1
21_casillas_tseltal_2015_26,40,si',26,21,firewood,distractor,0,106,0,NA,NA,0,NA,NA,0,NA,NA,NA,1
22_casillas_tseltal_2015_36,1,lo'bal,36,22,banana,target,106,0,1,NA,1,NA,1,NA,0,1766.6666666666667,1766.6666666666667,4240,11
22_casillas_tseltal_2015_36,8,xila,36,22,chair,distractor,0,106,0,NA,NA,0,NA,NA,0,NA,NA,NA,11
22_casillas_tseltal_2015_36,13,wa,36,22,tortilla,distractor,20,82,0.19607843137254902,NA,1,1,NA,465,2,333.33333333333337,333.33333333333337,800,11
22_casillas_tseltal_2015_36,14,moch,36,22,basket-tseltal,target,106,0,1,NA,1,NA,1,NA,0,1766.6666666666667,1766.6666666666667,4240,11
22_casillas_tseltal_2015_36,15,pelota,36,22,ball,distractor,19,83,0.18627450980392157,NA,1,1,NA,140,1,316.6666666666667,316.6666666666667,760,11
22_casillas_tseltal_2015_36,16,chojak',36,22,purse-tseltal,target,98,0,1,NA,2,NA,1,NA,0,816.6666666666667,933.3333333333334,2240,11
22_casillas_tseltal_2015_36,17,baso,36,22,cup,target,106,0,1,NA,1,NA,1,NA,0,1766.6666666666667,1766.6666666666667,4240,11
22_casillas_tseltal_2015_36,18,nichim,36,22,flower,target,99,0,1,NA,2,NA,1,NA,0,825,716.6666666666667,2240,11
22_casillas_tseltal_2015_36,19,balti,36,22,bucket,target,71,20,0.7802197802197802,NA,2,NA,1,NA,2,591.6666666666667,983.3333333333334,2360,11
22_casillas_tseltal_2015_36,20,mut,36,22,chicken,distractor,34,70,0.3269230769230769,NA,1,0,NA,NA,1,566.6666666666667,566.6666666666667,1360,11
22_casillas_tseltal_2015_36,21,k'ajk',36,22,fire,target,13,92,0.12380952380952381,NA,1,NA,0,NA,1,216.66666666666669,216.66666666666669,520,11
22_casillas_tseltal_2015_36,22,mexa,36,22,table,target,19,85,0.18269230769230768,NA,1,NA,0,NA,1,316.6666666666667,316.6666666666667,760,11
22_casillas_tseltal_2015_36,23,xawin,36,22,cat,target,54,42,0.5625,NA,1,NA,0,NA,1,900.0000000000001,900.0000000000001,2160,11
22_casillas_tseltal_2015_36,24,ja',36,22,water,target,21,84,0.2,NA,1,NA,0,NA,1,350,350,840,11
22_casillas_tseltal_2015_36,25,ixim,36,22,corn,target,33,63,0.34375,NA,1,NA,0,NA,1,433.33333333333337,433.33333333333337,1040,11
22_casillas_tseltal_2015_36,26,karo,36,22,car,target,46,45,0.5054945054945055,NA,1,NA,0,NA,1,633.3333333333334,633.3333333333334,1520,11
22_casillas_tseltal_2015_36,27,bojch,36,22,bowl-tseltal,target,106,0,1,NA,1,NA,1,NA,0,1766.6666666666667,1766.6666666666667,4240,11
22_casillas_tseltal_2015_36,28,na,36,22,house,distractor,55,50,0.5238095238095238,NA,1,1,NA,1290,1,916.6666666666667,916.6666666666667,2200,11
22_casillas_tseltal_2015_36,29,te,36,22,tree,target,106,0,1,NA,1,NA,1,NA,0,1766.6666666666667,1766.6666666666667,4240,11
22_casillas_tseltal_2015_36,30,waybal,36,22,bed,distractor,0,106,0,NA,NA,0,NA,NA,0,NA,NA,NA,11
22_casillas_tseltal_2015_36,31,t'inel,36,22,doorway,distractor,0,101,0,NA,NA,0,NA,NA,0,NA,NA,NA,11
22_casillas_tseltal_2015_36,32,chenek',36,22,bean,distractor,63,42,0.6,NA,1,1,NA,1090,1,1050,1050,2520,11
22_casillas_tseltal_2015_36,33,tz'i,36,22,dog,distractor,79,26,0.7523809523809524,NA,1,1,NA,690,1,1316.6666666666667,1316.6666666666667,3160,11
22_casillas_tseltal_2015_36,34,tomut,36,22,egg,target,106,0,1,NA,1,NA,1,NA,0,1766.6666666666667,1766.6666666666667,4240,11
22_casillas_tseltal_2015_36,35,p'in,36,22,pot-tseltal,target,20,83,0.1941747572815534,NA,1,NA,0,NA,1,300,300,720,11
22_casillas_tseltal_2015_36,36,tzek',36,22,skirt-tseltal,distractor,0,106,0,NA,NA,0,NA,NA,0,NA,NA,NA,11
22_casillas_tseltal_2015_36,37,ich,36,22,chile,distractor,2,102,0.019230769230769232,NA,NA,0,NA,NA,0,NA,NA,NA,11
22_casillas_tseltal_2015_36,38,mes,36,22,broom,target,106,0,1,NA,1,NA,1,NA,0,1766.6666666666667,1766.6666666666667,4240,11
22_casillas_tseltal_2015_36,39,machit,36,22,machete,neither,55,31,0.6395348837209303,NA,1,NA,NA,NA,1,916.6666666666667,916.6666666666667,2200,11
22_casillas_tseltal_2015_36,40,si',36,22,firewood,distractor,40,64,0.38461538461538464,NA,1,0,NA,NA,1,666.6666666666667,666.6666666666667,1600,11
23_ronfard_2021_22,1,dog,22,23,dog,target,37,0,1,0.10344827586206895,1,NA,1,NA,0,616.6666666666667,616.6666666666667,1233.3333333333335,-3
23_ronfard_2021_22,3,car,22,23,car,distractor,47,7,0.8703703703703703,0.38649425287356315,1,1,NA,290,0,783.3333333333334,783.3333333333334,1566.6666666666667,-3
23_ronfard_2021_22,7,shoe,22,23,shoe,distractor,33,23,0.5892857142857143,0.39655172413793105,1,1,NA,640,1,550,550,1100,-3
23_ronfard_2021_22,8,cat,22,23,cat,distractor,22,32,0.4074074074074074,0.17241379310344826,1,1,NA,915,1,366.6666666666667,366.6666666666667,733.3333333333334,-3
23_ronfard_2021_22,10,baby,22,23,baby,target,22,30,0.4230769230769231,0.23706896551724138,1,NA,0,NA,1,316.6666666666667,316.6666666666667,633.3333333333334,-3
23_ronfard_2021_22,15,birdie,22,23,birdie,distractor,34,21,0.6181818181818182,0.2844827586206896,1,1,NA,615,1,566.6666666666667,566.6666666666667,1133.3333333333335,-3
23_ronfard_2021_22,16,ball,22,23,ball,distractor,27,28,0.4909090909090909,0.18103448275862066,1,1,NA,790,1,450.00000000000006,450.00000000000006,900.0000000000001,-3
23_ronfard_2021_22,17,car,22,23,car,distractor,43,12,0.7818181818181819,0.38649425287356315,1,1,NA,390,1,716.6666666666667,716.6666666666667,1433.3333333333335,-3
23_ronfard_2021_22,19,baby,22,23,baby,target,58,0,1,0.23706896551724138,1,NA,1,NA,0,966.6666666666667,966.6666666666667,1933.3333333333335,-3
23_ronfard_2021_22,22,book,22,23,book,distractor,0,58,0,0.22988505747126436,NA,0,NA,NA,0,NA,NA,NA,-3
23_ronfard_2021_22,23,ball,22,23,ball,target,40,14,0.7407407407407407,0.18103448275862066,1,NA,0,NA,1,516.6666666666667,516.6666666666667,1033.3333333333335,-3
23_ronfard_2021_22,26,car,22,23,car,distractor,35,20,0.6363636363636364,0.38649425287356315,1,1,NA,590,1,583.3333333333334,583.3333333333334,1166.6666666666667,-3
23_ronfard_2021_22,27,shoe,22,23,shoe,distractor,46,7,0.8679245283018868,0.39655172413793105,1,1,NA,315,1,766.6666666666667,766.6666666666667,1533.3333333333335,-3
23_ronfard_2021_22,30,dog,22,23,dog,distractor,51,4,0.9272727272727272,0.10344827586206895,1,1,NA,190,0,850.0000000000001,850.0000000000001,1700.0000000000002,-3
23_ronfard_2021_22,37,birdie,22,23,birdie,distractor,27,24,0.5294117647058824,0.2844827586206896,1,1,NA,440,2,450.00000000000006,450.00000000000006,900.0000000000001,-3
23_ronfard_2021_22,39,dog,22,23,dog,target,58,0,1,0.10344827586206895,1,NA,1,NA,0,966.6666666666667,966.6666666666667,1933.3333333333335,-3
23_ronfard_2021_22,51,shoe,22,23,shoe,target,7,47,0.12962962962962962,0.39655172413793105,NA,NA,0,NA,0,NA,NA,NA,-3
23_ronfard_2021_22,53,book,22,23,book,target,58,0,1,0.22988505747126436,1,NA,1,NA,0,966.6666666666667,966.6666666666667,1933.3333333333335,-3
23_ronfard_2021_22,54,cat,22,23,cat,distractor,0,58,0,0.17241379310344826,NA,0,NA,NA,0,NA,NA,NA,-3
23_ronfard_2021_22,55,baby,22,23,baby,target,28,26,0.5185185185185185,0.23706896551724138,1,NA,0,NA,1,450.00000000000006,450.00000000000006,900.0000000000001,-3
23_ronfard_2021_22,58,baby,22,23,baby,neither,37,0,1,0.23706896551724138,1,NA,NA,NA,0,616.6666666666667,616.6666666666667,1233.3333333333335,-3
23_ronfard_2021_22,60,dog,22,23,dog,target,58,0,1,0.10344827586206895,1,NA,1,NA,0,966.6666666666667,966.6666666666667,1933.3333333333335,-3
23_ronfard_2021_22,63,shoe,22,23,shoe,target,58,0,1,0.39655172413793105,1,NA,1,NA,0,966.6666666666667,966.6666666666667,1933.3333333333335,-3
23_ronfard_2021_22,65,book,22,23,book,distractor,45,11,0.8035714285714286,0.22988505747126436,1,1,NA,340,1,750,750,1500,-3
24_ronfard_2021_19,1,dog,19,24,dog,distractor,2,52,0.037037037037037035,0.051724137931034586,NA,1,NA,1415,0,NA,NA,NA,-6
24_ronfard_2021_19,3,car,19,24,car,distractor,51,4,0.9272727272727272,0.31465517241379315,1,1,NA,190,0,850.0000000000001,850.0000000000001,1700.0000000000002,-6
24_ronfard_2021_19,4,book,19,24,book,distractor,22,33,0.4,0.24137931034482757,1,1,NA,915,1,366.6666666666667,366.6666666666667,733.3333333333334,-6
24_ronfard_2021_19,8,cat,19,24,cat,distractor,11,44,0.2,0.09482758620689657,NA,1,NA,1190,0,NA,NA,NA,-6
24_ronfard_2021_19,10,baby,19,24,baby,target,58,0,1,0.6192528735632183,1,NA,1,NA,0,966.6666666666667,966.6666666666667,1933.3333333333335,-6
24_ronfard_2021_19,15,birdie,19,24,birdie,distractor,38,17,0.6909090909090909,0.7413793103448276,1,1,NA,40,1,633.3333333333334,633.3333333333334,1266.6666666666667,-6
24_ronfard_2021_19,16,ball,19,24,ball,target,58,0,1,0.1724137931034483,1,NA,1,NA,0,966.6666666666667,966.6666666666667,1933.3333333333335,-6
24_ronfard_2021_19,17,car,19,24,car,target,58,0,1,0.31465517241379315,1,NA,1,NA,0,966.6666666666667,966.6666666666667,1933.3333333333335,-6
24_ronfard_2021_19,19,baby,19,24,baby,target,58,0,1,0.6192528735632183,1,NA,1,NA,0,966.6666666666667,966.6666666666667,1933.3333333333335,-6
24_ronfard_2021_19,23,ball,19,24,ball,neither,30,9,0.7692307692307693,0.1724137931034483,1,NA,NA,NA,1,500.00000000000006,500.00000000000006,1000.0000000000001,-6
24_ronfard_2021_19,26,car,19,24,car,target,58,0,1,0.31465517241379315,1,NA,1,NA,0,966.6666666666667,966.6666666666667,1933.3333333333335,-6
24_ronfard_2021_19,27,shoe,19,24,shoe,distractor,30,25,0.5454545454545454,0.26724137931034486,1,1,NA,715,1,500.00000000000006,500.00000000000006,1000.0000000000001,-6
24_ronfard_2021_19,30,dog,19,24,dog,distractor,49,5,0.9074074074074074,0.051724137931034586,1,1,NA,240,0,816.6666666666667,816.6666666666667,1633.3333333333335,-6
24_ronfard_2021_19,32,ball,19,24,ball,distractor,41,15,0.7321428571428571,0.1724137931034483,1,1,NA,440,1,683.3333333333334,683.3333333333334,1366.6666666666667,-6
24_ronfard_2021_19,37,birdie,19,24,birdie,target,58,0,1,0.7413793103448276,1,NA,1,NA,0,966.6666666666667,966.6666666666667,1933.3333333333335,-6
24_ronfard_2021_19,39,dog,19,24,dog,distractor,49,7,0.875,0.051724137931034586,1,1,NA,240,0,816.6666666666667,816.6666666666667,1633.3333333333335,-6
24_ronfard_2021_19,41,birdie,19,24,birdie,distractor,18,34,0.34615384615384615,0.7413793103448276,1,1,NA,390,2,300,300,600,-6
24_ronfard_2021_19,43,cat,19,24,cat,target,58,0,1,0.09482758620689657,1,NA,1,NA,0,966.6666666666667,966.6666666666667,1933.3333333333335,-6
24_ronfard_2021_19,45,birdie,19,24,birdie,target,58,0,1,0.7413793103448276,1,NA,1,NA,0,966.6666666666667,966.6666666666667,1933.3333333333335,-6
24_ronfard_2021_19,48,car,19,24,car,target,58,0,1,0.31465517241379315,1,NA,1,NA,0,966.6666666666667,966.6666666666667,1933.3333333333335,-6
24_ronfard_2021_19,49,cat,19,24,cat,distractor,0,58,0,0.09482758620689657,NA,0,NA,NA,0,NA,NA,NA,-6
24_ronfard_2021_19,58,baby,19,24,baby,neither,30,0,1,0.6192528735632183,1,NA,NA,NA,0,450.00000000000006,450.00000000000006,900.0000000000001,-6
24_ronfard_2021_19,60,dog,19,24,dog,distractor,48,6,0.8888888888888888,0.051724137931034586,1,1,NA,40,0,800,800,1600,-6
24_ronfard_2021_19,63,shoe,19,24,shoe,target,3,51,0.05555555555555555,0.26724137931034486,NA,NA,0,NA,0,NA,NA,NA,-6
25_ronfard_2021_20,1,baby,20,25,baby,target,7,47,0.12962962962962962,-0.25862068965517243,NA,NA,0,NA,0,NA,NA,NA,-5
25_ronfard_2021_20,3,dog,20,25,dog,target,58,0,1,-0.0028735632183907733,1,NA,1,NA,0,966.6666666666667,966.6666666666667,1933.3333333333335,-5
25_ronfard_2021_20,6,shoe,20,25,shoe,target,43,11,0.7962962962962963,-0.2126436781609195,1,NA,0,NA,1,716.6666666666667,716.6666666666667,1433.3333333333335,-5
25_ronfard_2021_20,7,book,20,25,book,distractor,51,2,0.9622641509433962,-0.39655172413793105,1,1,NA,115,0,850.0000000000001,850.0000000000001,1700.0000000000002,-5
25_ronfard_2021_20,10,shoe,20,25,shoe,distractor,0,52,0,-0.2126436781609195,NA,0,NA,NA,0,NA,NA,NA,-5
25_ronfard_2021_20,13,book,20,25,book,target,4,51,0.07272727272727272,-0.39655172413793105,NA,NA,0,NA,0,NA,NA,NA,-5
25_ronfard_2021_20,14,cat,20,25,cat,distractor,45,11,0.8035714285714286,-0.08333333333333331,1,1,NA,340,1,750,750,1500,-5
25_ronfard_2021_20,15,baby,20,25,baby,target,1,51,0.019230769230769232,-0.25862068965517243,NA,NA,0,NA,0,NA,NA,NA,-5
25_ronfard_2021_20,19,cat,20,25,cat,target,0,46,0,-0.08333333333333331,NA,NA,0,NA,0,NA,NA,NA,-5
25_ronfard_2021_20,22,birdie,20,25,birdie,distractor,20,33,0.37735849056603776,-0.24137931034482762,1,1,NA,390,2,333.33333333333337,333.33333333333337,666.6666666666667,-5
25_ronfard_2021_20,25,car,20,25,car,target,14,38,0.2692307692307692,-0.24712643678160917,NA,NA,0,NA,0,NA,NA,NA,-5
25_ronfard_2021_20,29,ball,20,25,ball,target,7,45,0.1346153846153846,-0.3318965517241379,NA,NA,0,NA,0,NA,NA,NA,-5
25_ronfard_2021_20,32,dog,20,25,dog,distractor,25,29,0.46296296296296297,-0.0028735632183907733,1,1,NA,840,1,416.6666666666667,416.6666666666667,833.3333333333334,-5
25_ronfard_2021_20,35,car,20,25,car,distractor,52,0,1,-0.24712643678160917,1,1,NA,15,0,750,750,1500,-5
25_ronfard_2021_20,36,shoe,20,25,shoe,distractor,1,55,0.017857142857142856,-0.2126436781609195,NA,1,NA,1440,0,NA,NA,NA,-5
25_ronfard_2021_20,41,ball,20,25,ball,distractor,0,58,0,-0.3318965517241379,NA,0,NA,NA,0,NA,NA,NA,-5
25_ronfard_2021_20,43,car,20,25,car,target,3,53,0.05357142857142857,-0.24712643678160917,NA,NA,0,NA,0,NA,NA,NA,-5
25_ronfard_2021_20,47,book,20,25,book,target,20,28,0.4166666666666667,-0.39655172413793105,1,NA,0,NA,1,333.33333333333337,333.33333333333337,666.6666666666667,-5
25_ronfard_2021_20,48,ball,20,25,ball,distractor,0,58,0,-0.3318965517241379,NA,0,NA,NA,0,NA,NA,NA,-5
25_ronfard_2021_20,53,baby,20,25,baby,distractor,37,10,0.7872340425531915,-0.25862068965517243,1,1,NA,190,0,616.6666666666667,616.6666666666667,1233.3333333333335,-5
25_ronfard_2021_20,57,birdie,20,25,birdie,target,24,27,0.47058823529411764,-0.24137931034482762,1,NA,0,NA,1,400,400,800,-5
25_ronfard_2021_20,58,ball,20,25,ball,target,24,31,0.43636363636363634,-0.3318965517241379,1,NA,0,NA,1,400,400,800,-5
25_ronfard_2021_20,60,dog,20,25,dog,target,2,53,0.03636363636363636,-0.0028735632183907733,NA,NA,0,NA,0,NA,NA,NA,-5
25_ronfard_2021_20,62,car,20,25,car,target,31,17,0.6458333333333334,-0.24712643678160917,1,NA,0,NA,1,350,350,700,-5
26_ronfard_2021_19,1,baby,19,26,baby,distractor,27,27,0.5,0.4655172413793104,1,1,NA,790,1,450.00000000000006,450.00000000000006,900.0000000000001,-6
26_ronfard_2021_19,6,shoe,19,26,shoe,distractor,26,22,0.5416666666666666,0.39655172413793105,1,1,NA,815,1,433.33333333333337,433.33333333333337,866.6666666666667,-6
26_ronfard_2021_19,7,book,19,26,book,distractor,38,16,0.7037037037037037,NA,1,1,NA,515,1,633.3333333333334,633.3333333333334,1266.6666666666667,-6
26_ronfard_2021_19,13,book,19,26,book,target,51,0,1,NA,1,NA,1,NA,0,850.0000000000001,850.0000000000001,1700.0000000000002,-6
26_ronfard_2021_19,15,baby,19,26,baby,distractor,53,3,0.9464285714285714,0.4655172413793104,1,1,NA,140,0,883.3333333333334,883.3333333333334,1766.6666666666667,-6
26_ronfard_2021_19,19,cat,19,26,cat,target,58,0,1,NA,1,NA,1,NA,0,966.6666666666667,966.6666666666667,1933.3333333333335,-6
26_ronfard_2021_19,22,birdie,19,26,birdie,target,39,13,0.75,0.41379310344827586,1,NA,0,NA,1,633.3333333333334,633.3333333333334,1266.6666666666667,-6
26_ronfard_2021_19,25,car,19,26,car,distractor,51,3,0.9444444444444444,0.5,1,1,NA,190,0,850.0000000000001,850.0000000000001,1700.0000000000002,-6
27_ronfard_2021_19,1,dog,19,27,dog,target,58,0,1,0.45689655172413796,1,NA,1,NA,0,966.6666666666667,966.6666666666667,1933.3333333333335,-6
27_ronfard_2021_19,4,shoe,19,27,shoe,target,31,23,0.5740740740740741,0.16666666666666669,1,NA,0,NA,1,516.6666666666667,516.6666666666667,1033.3333333333335,-6
27_ronfard_2021_19,8,shoe,19,27,shoe,target,58,0,1,0.16666666666666669,1,NA,1,NA,0,966.6666666666667,966.6666666666667,1933.3333333333335,-6
27_ronfard_2021_19,13,baby,19,27,baby,target,8,46,0.14814814814814814,-0.12356321839080461,NA,NA,0,NA,0,NA,NA,NA,-6
27_ronfard_2021_19,17,cat,19,27,cat,distractor,34,20,0.6296296296296297,0.45114942528735635,1,1,NA,615,1,566.6666666666667,566.6666666666667,1133.3333333333335,-6
27_ronfard_2021_19,20,birdie,19,27,birdie,distractor,33,23,0.5892857142857143,-0.10344827586206895,1,1,NA,640,1,550,550,1100,-6
27_ronfard_2021_19,24,cat,19,27,cat,target,21,34,0.38181818181818183,0.45114942528735635,1,NA,0,NA,1,350,350,700,-6
27_ronfard_2021_19,28,birdie,19,27,birdie,distractor,42,13,0.7636363636363637,-0.10344827586206895,1,1,NA,415,1,700,700,1400,-6
27_ronfard_2021_19,32,birdie,19,27,birdie,distractor,39,11,0.78,-0.10344827586206895,1,1,NA,340,1,650,650,1300,-6
27_ronfard_2021_19,34,shoe,19,27,shoe,target,12,42,0.2222222222222222,0.16666666666666669,1,NA,0,NA,1,200,200,400,-6
27_ronfard_2021_19,37,dog,19,27,dog,distractor,31,23,0.5740740740740741,0.45689655172413796,1,1,NA,690,1,516.6666666666667,516.6666666666667,1033.3333333333335,-6
27_ronfard_2021_19,49,cat,19,27,cat,target,58,0,1,0.45114942528735635,1,NA,1,NA,0,966.6666666666667,966.6666666666667,1933.3333333333335,-6
27_ronfard_2021_19,51,baby,19,27,baby,distractor,9,42,0.17647058823529413,-0.12356321839080461,NA,1,NA,215,0,NA,NA,NA,-6
27_ronfard_2021_19,56,ball,19,27,ball,distractor,26,29,0.4727272727272727,NA,1,1,NA,815,1,433.33333333333337,433.33333333333337,866.6666666666667,-6
27_ronfard_2021_19,60,car,19,27,car,distractor,31,24,0.5636363636363636,0.16091954022988503,1,1,NA,690,1,516.6666666666667,516.6666666666667,1033.3333333333335,-6
28_ronfard_2021_18,1,dog,18,28,dog,distractor,0,58,0,0.022988505747126436,NA,0,NA,NA,0,NA,NA,NA,-7
28_ronfard_2021_18,3,car,18,28,car,target,19,34,0.3584905660377358,-0.3448275862068965,1,NA,0,NA,1,316.6666666666667,316.6666666666667,633.3333333333334,-7
28_ronfard_2021_18,4,book,18,28,book,target,51,5,0.9107142857142857,0.6867816091954023,1,NA,0,NA,0,850.0000000000001,850.0000000000001,1700.0000000000002,-7
28_ronfard_2021_18,8,cat,18,28,cat,distractor,31,21,0.5961538461538461,0.04310344827586199,1,1,NA,690,1,516.6666666666667,516.6666666666667,1033.3333333333335,-7
28_ronfard_2021_18,10,baby,18,28,baby,target,30,0,1,0.4195402298850575,2,NA,1,NA,0,250.00000000000003,283.33333333333337,566.6666666666667,-7
28_ronfard_2021_18,15,birdie,18,28,birdie,distractor,58,0,1,0.6436781609195402,1,1,NA,15,0,966.6666666666667,966.6666666666667,1933.3333333333335,-7
28_ronfard_2021_18,16,ball,18,28,ball,distractor,13,43,0.23214285714285715,0.6925287356321839,1,1,NA,1140,1,216.66666666666669,216.66666666666669,433.33333333333337,-7
28_ronfard_2021_18,17,car,18,28,car,distractor,0,32,0,-0.3448275862068965,NA,0,NA,NA,0,NA,NA,NA,-7
28_ronfard_2021_18,19,baby,18,28,baby,target,58,0,1,0.4195402298850575,1,NA,1,NA,0,966.6666666666667,966.6666666666667,1933.3333333333335,-7
28_ronfard_2021_18,22,book,18,28,book,target,58,0,1,0.6867816091954023,1,NA,1,NA,0,966.6666666666667,966.6666666666667,1933.3333333333335,-7
28_ronfard_2021_18,23,ball,18,28,ball,target,58,0,1,0.6925287356321839,1,NA,1,NA,0,966.6666666666667,966.6666666666667,1933.3333333333335,-7
28_ronfard_2021_18,27,shoe,18,28,shoe,distractor,23,32,0.41818181818181815,-0.1637931034482759,1,1,NA,890,1,383.33333333333337,383.33333333333337,766.6666666666667,-7
28_ronfard_2021_18,30,dog,18,28,dog,distractor,25,25,0.5,0.022988505747126436,1,1,NA,215,1,416.6666666666667,416.6666666666667,833.3333333333334,-7
28_ronfard_2021_18,32,ball,18,28,ball,neither,57,1,0.9827586206896551,0.6925287356321839,1,NA,NA,NA,0,950.0000000000001,950.0000000000001,1900.0000000000002,-7
28_ronfard_2021_18,37,birdie,18,28,birdie,distractor,0,58,0,0.6436781609195402,NA,0,NA,NA,0,NA,NA,NA,-7
28_ronfard_2021_18,39,dog,18,28,dog,distractor,0,58,0,0.022988505747126436,NA,0,NA,NA,0,NA,NA,NA,-7
28_ronfard_2021_18,43,cat,18,28,cat,target,52,2,0.9629629629629629,0.04310344827586199,1,NA,0,NA,0,866.6666666666667,866.6666666666667,1733.3333333333335,-7
28_ronfard_2021_18,45,birdie,18,28,birdie,distractor,54,0,1,0.6436781609195402,1,1,NA,115,0,900.0000000000001,900.0000000000001,1800.0000000000002,-7
28_ronfard_2021_18,54,cat,18,28,cat,target,40,15,0.7272727272727273,0.04310344827586199,1,NA,0,NA,1,666.6666666666667,666.6666666666667,1333.3333333333335,-7
28_ronfard_2021_18,58,baby,18,28,baby,neither,43,0,1,0.4195402298850575,1,NA,NA,NA,0,716.6666666666667,716.6666666666667,1433.3333333333335,-7
28_ronfard_2021_18,60,dog,18,28,dog,distractor,31,13,0.7045454545454546,0.022988505747126436,1,1,NA,690,1,516.6666666666667,516.6666666666667,1033.3333333333335,-7
28_ronfard_2021_18,63,shoe,18,28,shoe,distractor,24,27,0.47058823529411764,-0.1637931034482759,1,1,NA,615,1,400,400,800,-7
29_ronfard_2021_22,1,shoe,22,29,shoe,distractor,30,25,0.5454545454545454,-0.10344827586206895,1,1,NA,715,1,500.00000000000006,500.00000000000006,1000.0000000000001,-3
29_ronfard_2021_22,2,book,22,29,book,distractor,43,12,0.7818181818181819,0.12068965517241381,1,1,NA,390,1,716.6666666666667,716.6666666666667,1433.3333333333335,-3
29_ronfard_2021_22,5,shoe,22,29,shoe,target,31,21,0.5961538461538461,-0.10344827586206895,1,NA,0,NA,1,350,350,700,-3
29_ronfard_2021_22,9,cat,22,29,cat,distractor,23,32,0.41818181818181815,-0.03448275862068961,1,1,NA,890,1,383.33333333333337,383.33333333333337,766.6666666666667,-3
29_ronfard_2021_22,10,baby,22,29,baby,target,35,13,0.7291666666666666,0.2844827586206896,2,NA,0,NA,2,291.6666666666667,266.6666666666667,633.3333333333334,-3
29_ronfard_2021_22,14,cat,22,29,cat,distractor,41,13,0.7592592592592593,-0.03448275862068961,1,1,NA,440,1,683.3333333333334,683.3333333333334,1366.6666666666667,-3
29_ronfard_2021_22,17,birdie,22,29,birdie,target,26,26,0.5,0.38793103448275856,1,NA,0,NA,1,350,350,700,-3
29_ronfard_2021_22,24,ball,22,29,ball,target,16,39,0.2909090909090909,-0.08620689655172413,1,NA,0,NA,1,266.6666666666667,266.6666666666667,533.3333333333334,-3
29_ronfard_2021_22,25,birdie,22,29,birdie,distractor,45,11,0.8035714285714286,0.38793103448275856,1,1,NA,340,1,750,750,1500,-3
29_ronfard_2021_22,30,car,22,29,car,distractor,11,44,0.2,-0.11206896551724138,NA,1,NA,1190,0,NA,NA,NA,-3
29_ronfard_2021_22,36,ball,22,29,ball,neither,5,35,0.125,-0.08620689655172413,NA,NA,NA,NA,0,NA,NA,NA,-3
29_ronfard_2021_22,38,car,22,29,car,target,22,29,0.43137254901960786,-0.11206896551724138,1,NA,0,NA,1,266.6666666666667,266.6666666666667,533.3333333333334,-3
