recording_name,trial_number,target_word,age_months,subject_id,media_name,initial_look,samples_target,samples_distractor,prop_looking,prop_looking_diff,number_fixations,correct_shift,remain_on_target,latency_to_switch,total_aoi_switches,duration_of_look,first_look_dur,longest_look_by_trial,age_months_centred
108_pomper_saffran_2016_46,4,white,46,108,white,distractor,77,22,0.7777777777777778,NA,1,1,NA,615,1,1283.3333333333335,1283.3333333333335,2566.666666666667,21
108_pomper_saffran_2016_46,5,red,46,108,red,distractor,101,3,0.9711538461538461,NA,1,1,NA,140,0,1683.3333333333335,1683.3333333333335,3366.666666666667,21
108_pomper_saffran_2016_46,6,black,46,108,black,distractor,69,36,0.6571428571428571,NA,1,1,NA,940,1,1150,1150,2300,21
109_pomper_saffran_2016_43,9,green,43,109,green,distractor,88,9,0.9072164948453608,NA,2,1,NA,140,0,733.3333333333334,500.00000000000006,1933.3333333333335,18
109_pomper_saffran_2016_43,12,brown,43,109,brown,distractor,86,17,0.8349514563106796,0.3584905660377359,1,1,NA,515,1,1433.3333333333335,1433.3333333333335,2866.666666666667,18
109_pomper_saffran_2016_43,14,green,43,109,green,distractor,91,12,0.883495145631068,NA,1,1,NA,390,1,1516.6666666666667,1516.6666666666667,3033.3333333333335,18
109_pomper_saffran_2016_43,15,white,43,109,white,distractor,54,48,0.5294117647058824,0.34905660377358494,1,1,NA,540,2,900.0000000000001,900.0000000000001,1800.0000000000002,18
109_pomper_saffran_2016_43,16,blue,43,109,blue,distractor,101,3,0.9711538461538461,NA,1,1,NA,140,0,1683.3333333333335,1683.3333333333335,3366.666666666667,18
110_pomper_saffran_2016_47,3,black,47,110,black,distractor,70,33,0.6796116504854369,0.660377358490566,1,1,NA,915,1,1166.6666666666667,1166.6666666666667,2333.3333333333335,22
110_pomper_saffran_2016_47,4,brown,47,110,brown,distractor,98,4,0.9607843137254902,NA,1,1,NA,215,0,1633.3333333333335,1633.3333333333335,3266.666666666667,22
110_pomper_saffran_2016_47,6,yellow,47,110,yellow,distractor,103,0,1,0.6603773584905661,1,1,NA,90,0,1716.6666666666667,1716.6666666666667,3433.3333333333335,22
110_pomper_saffran_2016_47,7,blue,47,110,blue,distractor,105,0,1,NA,1,1,NA,40,0,1750.0000000000002,1750.0000000000002,3500.0000000000005,22
111_pomper_saffran_2016_42,9,red,42,111,red,distractor,86,17,0.8349514563106796,NA,1,1,NA,515,1,1433.3333333333335,1433.3333333333335,2866.666666666667,17
111_pomper_saffran_2016_42,13,black,42,111,black,distractor,68,26,0.723404255319149,NA,1,1,NA,340,1,1133.3333333333335,1133.3333333333335,2266.666666666667,17
112_pomper_saffran_2016_43,3,yellow,43,112,yellow,distractor,61,0,1,NA,1,1,NA,90,0,1016.6666666666667,1016.6666666666667,2033.3333333333335,18
112_pomper_saffran_2016_43,4,white,43,112,white,distractor,45,33,0.5769230769230769,0.28301886792452835,1,1,NA,115,1,750,750,1500,18
112_pomper_saffran_2016_43,8,brown,43,112,brown,distractor,75,15,0.8333333333333334,0.3962264150943396,1,1,NA,140,1,1250,1250,2500,18
113_pomper_saffran_2016_42,1,green,42,113,green,distractor,87,16,0.8446601941747572,NA,1,1,NA,490,1,1450,1450,2900,17
113_pomper_saffran_2016_42,3,black,42,113,black,distractor,83,20,0.8058252427184466,NA,1,1,NA,590,1,1383.3333333333335,1383.3333333333335,2766.666666666667,17
113_pomper_saffran_2016_42,4,brown,42,113,brown,distractor,40,34,0.5405405405405406,NA,1,1,NA,190,1,666.6666666666667,666.6666666666667,1333.3333333333335,17
114_pomper_saffran_2016_42,10,blue,42,114,blue,distractor,41,63,0.3942307692307692,NA,1,0,NA,NA,1,683.3333333333334,683.3333333333334,1366.6666666666667,17
114_pomper_saffran_2016_42,13,yellow,42,114,yellow,distractor,91,12,0.883495145631068,NA,1,1,NA,390,1,1516.6666666666667,1516.6666666666667,3033.3333333333335,17
114_pomper_saffran_2016_42,14,green,42,114,green,distractor,91,12,0.883495145631068,NA,1,1,NA,390,1,1516.6666666666667,1516.6666666666667,3033.3333333333335,17
114_pomper_saffran_2016_42,15,white,42,114,white,distractor,89,15,0.8557692307692307,NA,1,1,NA,440,1,1483.3333333333335,1483.3333333333335,2966.666666666667,17
115_pomper_saffran_2016_42,9,orange,42,115,orange,distractor,89,15,0.8557692307692307,NA,1,1,NA,440,1,1483.3333333333335,1483.3333333333335,2966.666666666667,17
115_pomper_saffran_2016_42,10,red,42,115,red,distractor,82,21,0.7961165048543689,NA,1,1,NA,615,1,1366.6666666666667,1366.6666666666667,2733.3333333333335,17
115_pomper_saffran_2016_42,11,yellow,42,115,yellow,distractor,82,21,0.7961165048543689,0.339622641509434,1,1,NA,615,1,1366.6666666666667,1366.6666666666667,2733.3333333333335,17
115_pomper_saffran_2016_42,12,white,42,115,white,distractor,66,32,0.673469387755102,NA,1,1,NA,340,1,1100,1100,2200,17
115_pomper_saffran_2016_42,14,black,42,115,black,distractor,51,46,0.5257731958762887,0.2830188679245283,1,1,NA,815,2,850.0000000000001,850.0000000000001,1700.0000000000002,17
116_pomper_saffran_2016_45,2,orange,45,116,orange,distractor,96,1,0.9896907216494846,NA,1,1,NA,115,0,1600,1600,3200,20
116_pomper_saffran_2016_45,3,yellow,45,116,yellow,distractor,101,3,0.9711538461538461,NA,1,1,NA,140,0,1683.3333333333335,1683.3333333333335,3366.666666666667,20
116_pomper_saffran_2016_45,4,white,45,116,white,distractor,101,0,1,0.6415094339622642,1,1,NA,140,0,1683.3333333333335,1683.3333333333335,3366.666666666667,20
116_pomper_saffran_2016_45,7,brown,45,116,brown,distractor,61,33,0.648936170212766,0.5754716981132075,2,1,NA,490,3,508.33333333333337,766.6666666666667,1533.3333333333335,20
117_pomper_saffran_2016_43,9,blue,43,117,blue,distractor,99,4,0.9611650485436893,NA,1,1,NA,190,0,1650.0000000000002,1650.0000000000002,3300.0000000000005,18
117_pomper_saffran_2016_43,10,green,43,117,green,distractor,102,1,0.9902912621359223,NA,1,1,NA,115,0,1700.0000000000002,1700.0000000000002,3400.0000000000005,18
117_pomper_saffran_2016_43,11,black,43,117,black,distractor,93,11,0.8942307692307693,NA,1,1,NA,340,0,1550,1550,3100,18
117_pomper_saffran_2016_43,12,brown,43,117,brown,distractor,99,4,0.9611650485436893,NA,1,1,NA,190,0,1650.0000000000002,1650.0000000000002,3300.0000000000005,18
118_pomper_saffran_2016_42,14,red,42,118,red,distractor,93,9,0.9117647058823529,NA,1,1,NA,340,0,1550,1550,3100,17
119_pomper_saffran_2016_43,3,red,43,119,red,distractor,50,50,0.5,0.4056603773584906,1,1,NA,290,1,833.3333333333334,833.3333333333334,1666.6666666666667,18
119_pomper_saffran_2016_43,4,blue,43,119,blue,distractor,94,9,0.912621359223301,NA,1,1,NA,315,0,1566.6666666666667,1566.6666666666667,3133.3333333333335,18
119_pomper_saffran_2016_43,5,brown,43,119,brown,distractor,90,13,0.8737864077669902,NA,1,1,NA,415,1,1500,1500,3000,18
119_pomper_saffran_2016_43,8,green,43,119,green,distractor,97,7,0.9326923076923077,0.44339622641509435,1,1,NA,240,0,1616.6666666666667,1616.6666666666667,3233.3333333333335,18
120_pomper_saffran_2016_42,9,yellow,42,120,yellow,distractor,71,8,0.8987341772151899,NA,2,1,NA,290,0,591.6666666666667,366.6666666666667,1633.3333333333335,17
120_pomper_saffran_2016_42,13,white,42,120,white,distractor,62,33,0.6526315789473685,NA,1,1,NA,990,1,1033.3333333333335,1033.3333333333335,2066.666666666667,17
120_pomper_saffran_2016_42,15,green,42,120,green,distractor,32,67,0.32323232323232326,NA,1,1,NA,640,2,533.3333333333334,533.3333333333334,1066.6666666666667,17
120_pomper_saffran_2016_42,16,yellow,42,120,yellow,distractor,22,55,0.2857142857142857,NA,1,0,NA,NA,1,366.6666666666667,366.6666666666667,733.3333333333334,17
121_pomper_saffran_2016_42,1,green,42,121,green,distractor,101,3,0.9711538461538461,NA,1,1,NA,140,0,1683.3333333333335,1683.3333333333335,3366.666666666667,17
121_pomper_saffran_2016_42,3,black,42,121,black,distractor,93,11,0.8942307692307693,NA,1,1,NA,340,0,1550,1550,3100,17
121_pomper_saffran_2016_42,4,brown,42,121,brown,distractor,102,1,0.9902912621359223,NA,1,1,NA,115,0,1700.0000000000002,1700.0000000000002,3400.0000000000005,17
121_pomper_saffran_2016_42,6,green,42,121,green,distractor,95,8,0.9223300970873787,NA,1,1,NA,290,0,1583.3333333333335,1583.3333333333335,3166.666666666667,17
122_pomper_saffran_2016_44,1,brown,44,122,brown,distractor,69,23,0.75,NA,2,1,NA,240,0,575,333.33333333333337,1633.3333333333335,19
122_pomper_saffran_2016_44,3,green,44,122,green,distractor,56,43,0.5656565656565656,NA,1,1,NA,715,2,933.3333333333334,933.3333333333334,1866.6666666666667,19
122_pomper_saffran_2016_44,6,orange,44,122,orange,distractor,38,64,0.37254901960784315,NA,1,1,NA,1040,2,633.3333333333334,633.3333333333334,1266.6666666666667,19
122_pomper_saffran_2016_44,7,yellow,44,122,yellow,distractor,82,20,0.803921568627451,NA,1,1,NA,615,1,1366.6666666666667,1366.6666666666667,2733.3333333333335,19
123_pomper_saffran_2016_43,9,black,43,123,black,distractor,83,20,0.8058252427184466,NA,1,1,NA,590,1,1383.3333333333335,1383.3333333333335,2766.666666666667,18
123_pomper_saffran_2016_43,12,blue,43,123,blue,distractor,74,29,0.7184466019417476,NA,1,1,NA,815,1,1233.3333333333335,1233.3333333333335,2466.666666666667,18
123_pomper_saffran_2016_43,15,red,43,123,red,distractor,79,24,0.7669902912621359,NA,1,1,NA,690,1,1316.6666666666667,1316.6666666666667,2633.3333333333335,18
124_pomper_saffran_2016_42,2,brown,42,124,brown,distractor,59,37,0.6145833333333334,NA,2,1,NA,190,2,491.66666666666674,566.6666666666667,1133.3333333333335,17
124_pomper_saffran_2016_42,3,red,42,124,red,distractor,62,7,0.8985507246376812,NA,2,1,NA,240,0,516.6666666666667,666.6666666666667,1333.3333333333335,17
124_pomper_saffran_2016_42,8,yellow,42,124,yellow,distractor,94,9,0.912621359223301,NA,1,1,NA,315,0,1566.6666666666667,1566.6666666666667,3133.3333333333335,17
125_pomper_saffran_2016_43,10,black,43,125,black,distractor,77,27,0.7403846153846154,NA,1,1,NA,740,1,1283.3333333333335,1283.3333333333335,2566.666666666667,18
125_pomper_saffran_2016_43,12,blue,43,125,blue,distractor,101,3,0.9711538461538461,NA,1,1,NA,140,0,1683.3333333333335,1683.3333333333335,3366.666666666667,18
125_pomper_saffran_2016_43,13,brown,43,125,brown,distractor,103,0,1,NA,1,1,NA,90,0,1716.6666666666667,1716.6666666666667,3433.3333333333335,18
125_pomper_saffran_2016_43,14,blue,43,125,blue,distractor,102,0,1,NA,1,1,NA,115,0,1700.0000000000002,1700.0000000000002,3400.0000000000005,18
125_pomper_saffran_2016_43,16,green,43,125,green,distractor,97,7,0.9326923076923077,NA,1,1,NA,240,0,1616.6666666666667,1616.6666666666667,3233.3333333333335,18
126_pomper_saffran_2016_44,1,black,44,126,black,distractor,55,45,0.55,NA,2,1,NA,440,3,458.33333333333337,700,1400,19
126_pomper_saffran_2016_44,2,white,44,126,white,distractor,89,15,0.8557692307692307,NA,1,1,NA,440,1,1483.3333333333335,1483.3333333333335,2966.666666666667,19
126_pomper_saffran_2016_44,4,blue,44,126,blue,distractor,97,7,0.9326923076923077,NA,1,1,NA,240,0,1616.6666666666667,1616.6666666666667,3233.3333333333335,19
126_pomper_saffran_2016_44,7,red,44,126,red,distractor,49,50,0.494949494949495,NA,1,1,NA,515,2,816.6666666666667,816.6666666666667,1633.3333333333335,19
127_pomper_saffran_2016_41,9,orange,41,127,orange,distractor,77,25,0.7549019607843137,NA,1,1,NA,740,1,1283.3333333333335,1283.3333333333335,2566.666666666667,16
127_pomper_saffran_2016_41,11,yellow,41,127,yellow,distractor,98,5,0.9514563106796117,0.8018867924528302,1,1,NA,215,0,1633.3333333333335,1633.3333333333335,3266.666666666667,16
127_pomper_saffran_2016_41,12,white,41,127,white,distractor,79,23,0.7745098039215687,0.5094339622641508,1,1,NA,690,1,1316.6666666666667,1316.6666666666667,2633.3333333333335,16
127_pomper_saffran_2016_41,13,red,41,127,red,distractor,90,15,0.8571428571428571,NA,1,1,NA,415,1,1500,1500,3000,16
127_pomper_saffran_2016_41,14,black,41,127,black,distractor,87,13,0.87,0.7735849056603774,1,1,NA,415,1,1450,1450,2900,16
127_pomper_saffran_2016_41,15,orange,41,127,orange,distractor,55,42,0.5670103092783505,NA,1,1,NA,840,2,916.6666666666667,916.6666666666667,1833.3333333333335,16
127_pomper_saffran_2016_41,16,brown,41,127,brown,distractor,78,25,0.7572815533980582,0.5188679245283019,1,1,NA,715,1,1300,1300,2600,16
128_pomper_saffran_2016_47,11,green,47,128,green,distractor,90,13,0.8737864077669902,0.7641509433962265,1,1,NA,415,1,1500,1500,3000,22
128_pomper_saffran_2016_47,14,orange,47,128,orange,distractor,98,5,0.9514563106796117,NA,1,1,NA,215,0,1633.3333333333335,1633.3333333333335,3266.666666666667,22
128_pomper_saffran_2016_47,16,red,47,128,red,distractor,94,9,0.912621359223301,0.7641509433962265,1,1,NA,315,0,1566.6666666666667,1566.6666666666667,3133.3333333333335,22
129_pomper_saffran_2016_45,1,orange,45,129,orange,distractor,87,16,0.8446601941747572,NA,1,1,NA,490,1,1450,1450,2900,20
129_pomper_saffran_2016_45,2,red,45,129,red,distractor,67,4,0.9436619718309859,NA,2,1,NA,215,0,558.3333333333334,666.6666666666667,1333.3333333333335,20
129_pomper_saffran_2016_45,5,red,45,129,red,distractor,97,7,0.9326923076923077,NA,1,1,NA,240,0,1616.6666666666667,1616.6666666666667,3233.3333333333335,20
129_pomper_saffran_2016_45,6,black,45,129,black,distractor,95,8,0.9223300970873787,NA,1,1,NA,290,0,1583.3333333333335,1583.3333333333335,3166.666666666667,20
130_pomper_saffran_2016_44,10,blue,44,130,blue,distractor,79,24,0.7669902912621359,NA,1,1,NA,690,1,1316.6666666666667,1316.6666666666667,2633.3333333333335,19
130_pomper_saffran_2016_44,11,black,44,130,black,distractor,62,41,0.6019417475728155,NA,1,1,NA,1115,1,1033.3333333333335,1033.3333333333335,2066.666666666667,19
130_pomper_saffran_2016_44,15,white,44,130,white,distractor,103,0,1,NA,1,1,NA,90,0,1716.6666666666667,1716.6666666666667,3433.3333333333335,19
131_pomper_saffran_2016_42,1,blue,42,131,blue,distractor,86,16,0.8431372549019608,NA,1,1,NA,515,1,1433.3333333333335,1433.3333333333335,2866.666666666667,17
131_pomper_saffran_2016_42,4,brown,42,131,brown,distractor,57,8,0.8769230769230769,NA,2,1,NA,290,0,475,633.3333333333334,1266.6666666666667,17
131_pomper_saffran_2016_42,5,green,42,131,green,distractor,86,3,0.9662921348314607,NA,2,1,NA,190,0,716.6666666666667,1066.6666666666667,2133.3333333333335,17
131_pomper_saffran_2016_42,7,blue,42,131,blue,distractor,101,3,0.9711538461538461,NA,1,1,NA,140,0,1683.3333333333335,1683.3333333333335,3366.666666666667,17
132_pomper_saffran_2016_41,9,red,41,132,red,distractor,83,20,0.8058252427184466,NA,1,1,NA,590,1,1383.3333333333335,1383.3333333333335,2766.666666666667,16
132_pomper_saffran_2016_41,13,black,41,132,black,distractor,97,4,0.9603960396039604,NA,1,1,NA,240,0,1616.6666666666667,1616.6666666666667,3233.3333333333335,16
132_pomper_saffran_2016_41,14,red,41,132,red,distractor,48,48,0.5,NA,2,1,NA,115,2,400.00000000000006,283.33333333333337,1033.3333333333335,16
132_pomper_saffran_2016_41,15,brown,41,132,brown,distractor,104,0,1,NA,1,1,NA,40,0,1733.3333333333335,1733.3333333333335,3466.666666666667,16
132_pomper_saffran_2016_41,16,orange,41,132,orange,distractor,98,5,0.9514563106796117,NA,1,1,NA,215,0,1633.3333333333335,1633.3333333333335,3266.666666666667,16
133_pomper_saffran_2016_45,1,green,45,133,green,distractor,77,19,0.8020833333333334,NA,2,1,NA,190,2,641.6666666666667,566.6666666666667,1433.3333333333335,20
133_pomper_saffran_2016_45,3,black,45,133,black,distractor,62,37,0.6262626262626263,NA,2,1,NA,115,2,516.6666666666667,483.33333333333337,1100,20
133_pomper_saffran_2016_45,7,white,45,133,white,distractor,0,106,0,NA,NA,0,NA,NA,0,NA,NA,NA,20
134_pomper_saffran_2016_44,9,orange,44,134,orange,distractor,85,19,0.8173076923076923,NA,1,1,NA,540,1,1416.6666666666667,1416.6666666666667,2833.3333333333335,19
134_pomper_saffran_2016_44,10,red,44,134,red,distractor,65,30,0.6842105263157895,NA,1,1,NA,590,1,1083.3333333333335,1083.3333333333335,2166.666666666667,19
134_pomper_saffran_2016_44,14,black,44,134,black,distractor,89,15,0.8557692307692307,NA,1,1,NA,440,1,1483.3333333333335,1483.3333333333335,2966.666666666667,19
134_pomper_saffran_2016_44,15,orange,44,134,orange,distractor,79,24,0.7669902912621359,NA,1,1,NA,690,1,1316.6666666666667,1316.6666666666667,2633.3333333333335,19
135_pomper_saffran_2016_46,3,yellow,46,135,yellow,distractor,93,11,0.8942307692307693,0.6603773584905661,1,1,NA,340,0,1550,1550,3100,21
135_pomper_saffran_2016_46,5,black,46,135,black,distractor,75,23,0.7653061224489796,0.6037735849056604,2,1,NA,390,1,625,633.3333333333334,1266.6666666666667,21
136_pomper_saffran_2016_42,4,white,42,136,white,distractor,105,0,1,0.6415094339622642,1,1,NA,40,0,1750.0000000000002,1750.0000000000002,3500.0000000000005,17
136_pomper_saffran_2016_42,6,red,42,136,red,distractor,97,5,0.9509803921568627,NA,1,1,NA,240,0,1616.6666666666667,1616.6666666666667,3233.3333333333335,17
136_pomper_saffran_2016_42,7,brown,42,136,brown,distractor,64,37,0.6336633663366337,0.6037735849056604,1,1,NA,490,2,1066.6666666666667,1066.6666666666667,2133.3333333333335,17
136_pomper_saffran_2016_42,8,orange,42,136,orange,distractor,43,50,0.46236559139784944,NA,2,1,NA,240,2,358.33333333333337,466.6666666666667,933.3333333333334,17
137_pomper_saffran_2016_45,10,green,45,137,green,distractor,55,41,0.5729166666666666,NA,1,1,NA,1115,1,916.6666666666667,916.6666666666667,1833.3333333333335,20
137_pomper_saffran_2016_45,13,green,45,137,green,distractor,87,15,0.8529411764705882,NA,1,1,NA,490,1,1450,1450,2900,20
138_pomper_saffran_2016_43,1,white,43,138,white,distractor,23,79,0.22549019607843138,-0.05660377358490565,1,0,NA,NA,1,383.33333333333337,383.33333333333337,766.6666666666667,18
138_pomper_saffran_2016_43,2,black,43,138,black,distractor,80,20,0.8,NA,1,1,NA,615,1,1333.3333333333335,1333.3333333333335,2666.666666666667,18
138_pomper_saffran_2016_43,5,brown,43,138,brown,distractor,73,29,0.7156862745098039,-0.05660377358490565,1,1,NA,840,1,1216.6666666666667,1216.6666666666667,2433.3333333333335,18
138_pomper_saffran_2016_43,6,blue,43,138,blue,distractor,30,65,0.3157894736842105,NA,1,1,NA,140,1,400,400,800,18
138_pomper_saffran_2016_43,8,green,43,138,green,distractor,98,4,0.9607843137254902,NA,1,1,NA,215,0,1633.3333333333335,1633.3333333333335,3266.666666666667,18
139_pomper_saffran_2016_45,11,red,45,139,red,distractor,71,32,0.6893203883495146,NA,1,1,NA,890,1,1183.3333333333335,1183.3333333333335,2366.666666666667,20
139_pomper_saffran_2016_45,13,white,45,139,white,distractor,79,25,0.7596153846153846,NA,1,1,NA,690,1,1316.6666666666667,1316.6666666666667,2633.3333333333335,20
140_pomper_saffran_2016_46,1,brown,46,140,brown,distractor,17,62,0.21518987341772153,0.1509433962264151,1,1,NA,215,1,283.33333333333337,283.33333333333337,566.6666666666667,21
140_pomper_saffran_2016_46,5,white,46,140,white,distractor,102,1,0.9902912621359223,0.37735849056603776,1,1,NA,115,0,1700.0000000000002,1700.0000000000002,3400.0000000000005,21
140_pomper_saffran_2016_46,6,orange,46,140,orange,distractor,77,23,0.77,NA,2,1,NA,215,2,641.6666666666667,916.6666666666667,1833.3333333333335,21
140_pomper_saffran_2016_46,7,yellow,46,140,yellow,distractor,102,1,0.9902912621359223,NA,1,1,NA,115,0,1700.0000000000002,1700.0000000000002,3400.0000000000005,21
141_pomper_saffran_2016_47,9,blue,47,141,blue,distractor,69,35,0.6634615384615384,NA,1,1,NA,940,1,1150,1150,2300,22
141_pomper_saffran_2016_47,12,brown,47,141,brown,distractor,83,20,0.8058252427184466,0.7169811320754718,1,1,NA,590,1,1383.3333333333335,1383.3333333333335,2766.666666666667,22
141_pomper_saffran_2016_47,14,yellow,47,141,yellow,distractor,87,16,0.8446601941747572,NA,1,1,NA,490,1,1450,1450,2900,22
141_pomper_saffran_2016_47,15,blue,47,141,blue,distractor,42,58,0.42,NA,1,1,NA,40,1,516.6666666666667,516.6666666666667,1033.3333333333335,22
141_pomper_saffran_2016_47,16,white,47,141,white,distractor,97,7,0.9326923076923077,0.7264150943396226,1,1,NA,240,0,1616.6666666666667,1616.6666666666667,3233.3333333333335,22
142_pomper_saffran_2016_46,1,white,46,142,white,distractor,97,3,0.97,0.839622641509434,1,1,NA,190,0,1616.6666666666667,1616.6666666666667,3233.3333333333335,21
142_pomper_saffran_2016_46,2,black,46,142,black,distractor,85,19,0.8173076923076923,NA,1,1,NA,540,1,1416.6666666666667,1416.6666666666667,2833.3333333333335,21
142_pomper_saffran_2016_46,5,brown,46,142,brown,distractor,95,8,0.9223300970873787,0.8679245283018868,1,1,NA,290,0,1583.3333333333335,1583.3333333333335,3166.666666666667,21
142_pomper_saffran_2016_46,7,black,46,142,black,distractor,99,4,0.9611650485436893,NA,1,1,NA,190,0,1650.0000000000002,1650.0000000000002,3300.0000000000005,21
143_pomper_saffran_2016_45,11,red,45,143,red,distractor,93,12,0.8857142857142857,NA,1,1,NA,340,1,1550,1550,3100,20
144_pomper_saffran_2016_46,3,red,46,144,red,distractor,90,12,0.8823529411764706,0.7641509433962265,1,1,NA,415,1,1500,1500,3000,21
144_pomper_saffran_2016_46,4,orange,46,144,orange,distractor,101,3,0.9711538461538461,NA,1,1,NA,140,0,1683.3333333333335,1683.3333333333335,3366.666666666667,21
144_pomper_saffran_2016_46,5,white,46,144,white,distractor,99,3,0.9705882352941176,NA,1,1,NA,190,0,1650.0000000000002,1650.0000000000002,3300.0000000000005,21
144_pomper_saffran_2016_46,6,orange,46,144,orange,distractor,91,11,0.8921568627450981,NA,1,1,NA,390,0,1516.6666666666667,1516.6666666666667,3033.3333333333335,21
144_pomper_saffran_2016_46,7,green,46,144,green,distractor,94,9,0.912621359223301,0.7735849056603774,1,1,NA,315,0,1566.6666666666667,1566.6666666666667,3133.3333333333335,21
145_pomper_saffran_2016_47,12,blue,47,145,blue,distractor,66,37,0.6407766990291263,NA,1,1,NA,1015,1,1100,1100,2200,22
145_pomper_saffran_2016_47,14,blue,47,145,blue,distractor,97,7,0.9326923076923077,NA,1,1,NA,240,0,1616.6666666666667,1616.6666666666667,3233.3333333333335,22
145_pomper_saffran_2016_47,16,black,47,145,black,distractor,58,35,0.6236559139784946,NA,2,1,NA,115,2,483.33333333333337,666.6666666666667,1333.3333333333335,22
146_pomper_saffran_2016_43,9,black,43,146,black,distractor,89,16,0.8476190476190476,NA,1,1,NA,440,1,1483.3333333333335,1483.3333333333335,2966.666666666667,18
146_pomper_saffran_2016_43,10,white,43,146,white,distractor,81,21,0.7941176470588235,NA,1,1,NA,115,1,1350,1350,2700,18
146_pomper_saffran_2016_43,14,blue,43,146,blue,distractor,68,33,0.6732673267326733,NA,1,1,NA,340,1,1133.3333333333335,1133.3333333333335,2266.666666666667,18
146_pomper_saffran_2016_43,16,black,43,146,black,distractor,15,49,0.234375,NA,1,0,NA,NA,1,250.00000000000003,250.00000000000003,500.00000000000006,18
147_pomper_saffran_2016_46,9,white,46,147,white,distractor,89,16,0.8476190476190476,0.7358490566037736,1,1,NA,440,1,1483.3333333333335,1483.3333333333335,2966.666666666667,21
147_pomper_saffran_2016_46,10,black,46,147,black,distractor,38,63,0.37623762376237624,NA,1,1,NA,490,2,633.3333333333334,633.3333333333334,1266.6666666666667,21
147_pomper_saffran_2016_46,11,red,46,147,red,distractor,97,7,0.9326923076923077,0.6981132075471699,1,1,NA,240,0,1616.6666666666667,1616.6666666666667,3233.3333333333335,21
147_pomper_saffran_2016_46,12,blue,46,147,blue,distractor,78,21,0.7878787878787878,NA,1,1,NA,190,1,1300,1300,2600,21
147_pomper_saffran_2016_46,13,brown,46,147,brown,distractor,93,11,0.8942307692307693,0.7264150943396227,1,1,NA,340,0,1550,1550,3100,21
147_pomper_saffran_2016_46,16,green,46,147,green,distractor,77,23,0.77,0.660377358490566,1,1,NA,140,1,1116.6666666666667,1116.6666666666667,2233.3333333333335,21
148_pomper_saffran_2016_44,2,brown,44,148,brown,distractor,75,26,0.7425742574257426,0.21698113207547165,2,1,NA,140,2,625,766.6666666666667,1533.3333333333335,19
148_pomper_saffran_2016_44,3,red,44,148,red,distractor,50,49,0.5050505050505051,0.3679245283018868,1,1,NA,290,1,833.3333333333334,833.3333333333334,1666.6666666666667,19
148_pomper_saffran_2016_44,5,white,44,148,white,distractor,51,52,0.49514563106796117,0.2358490566037736,1,1,NA,340,1,850.0000000000001,850.0000000000001,1700.0000000000002,19
148_pomper_saffran_2016_44,7,green,44,148,green,distractor,94,11,0.8952380952380953,0.42452830188679247,1,1,NA,315,0,1566.6666666666667,1566.6666666666667,3133.3333333333335,19
149_pomper_saffran_2016_44,9,brown,44,149,brown,distractor,67,27,0.7127659574468085,NA,2,1,NA,90,2,558.3333333333334,300,1633.3333333333335,19
149_pomper_saffran_2016_44,12,orange,44,149,orange,distractor,62,32,0.6595744680851063,NA,2,1,NA,390,1,516.6666666666667,366.6666666666667,1333.3333333333335,19
149_pomper_saffran_2016_44,14,orange,44,149,orange,distractor,102,1,0.9902912621359223,NA,1,1,NA,115,0,1700.0000000000002,1700.0000000000002,3400.0000000000005,19
149_pomper_saffran_2016_44,15,yellow,44,149,yellow,distractor,95,8,0.9223300970873787,NA,1,1,NA,290,0,1583.3333333333335,1583.3333333333335,3166.666666666667,19
150_pomper_saffran_2016_43,9,white,43,150,white,distractor,90,12,0.8823529411764706,0.7452830188679246,2,1,NA,15,2,750,733.3333333333334,1533.3333333333335,18
150_pomper_saffran_2016_43,10,black,43,150,black,distractor,77,19,0.8020833333333334,NA,2,1,NA,190,2,641.6666666666667,433.33333333333337,1700.0000000000002,18
150_pomper_saffran_2016_43,12,blue,43,150,blue,distractor,105,0,1,NA,1,1,NA,40,0,1750.0000000000002,1750.0000000000002,3500.0000000000005,18
150_pomper_saffran_2016_43,13,brown,43,150,brown,distractor,93,11,0.8942307692307693,0.7641509433962265,1,1,NA,340,0,1550,1550,3100,18
151_pomper_saffran_2016_45,2,yellow,45,151,yellow,distractor,98,4,0.9607843137254902,NA,1,1,NA,215,0,1633.3333333333335,1633.3333333333335,3266.666666666667,20
151_pomper_saffran_2016_45,5,white,45,151,white,distractor,67,29,0.6979166666666666,NA,2,1,NA,540,1,558.3333333333334,600,1200,20
151_pomper_saffran_2016_45,7,yellow,45,151,yellow,distractor,79,24,0.7669902912621359,NA,1,1,NA,690,1,1316.6666666666667,1316.6666666666667,2633.3333333333335,20
152_pomper_saffran_2016_46,1,black,46,152,black,distractor,61,25,0.7093023255813954,NA,1,1,NA,515,1,1016.6666666666667,1016.6666666666667,2033.3333333333335,21
152_pomper_saffran_2016_46,2,white,46,152,white,distractor,89,16,0.8476190476190476,0.7264150943396227,1,1,NA,440,1,1483.3333333333335,1483.3333333333335,2966.666666666667,21
152_pomper_saffran_2016_46,5,brown,46,152,brown,distractor,91,12,0.883495145631068,0.7075471698113208,1,1,NA,390,1,1516.6666666666667,1516.6666666666667,3033.3333333333335,21
152_pomper_saffran_2016_46,6,blue,46,152,blue,distractor,61,34,0.6421052631578947,NA,2,1,NA,515,3,508.33333333333337,483.33333333333337,1066.6666666666667,21
153_pomper_saffran_2016_45,1,black,45,153,black,distractor,29,55,0.34523809523809523,NA,1,1,NA,390,2,333.33333333333337,333.33333333333337,666.6666666666667,20
153_pomper_saffran_2016_45,3,green,45,153,green,distractor,79,7,0.9186046511627907,0.6037735849056604,1,1,NA,240,0,1316.6666666666667,1316.6666666666667,2633.3333333333335,20
153_pomper_saffran_2016_45,7,red,45,153,red,distractor,89,15,0.8557692307692307,0.7735849056603774,1,1,NA,440,1,1483.3333333333335,1483.3333333333335,2966.666666666667,20
154_pomper_saffran_2016_41,9,brown,41,154,brown,distractor,49,50,0.494949494949495,0.3113207547169812,2,1,NA,440,3,408.33333333333337,433.33333333333337,866.6666666666667,16
154_pomper_saffran_2016_41,12,orange,41,154,orange,distractor,81,19,0.81,NA,2,1,NA,140,2,675.0000000000001,316.6666666666667,2066.666666666667,16
154_pomper_saffran_2016_41,13,white,41,154,white,distractor,89,16,0.8476190476190476,0.3679245283018868,1,1,NA,440,1,1483.3333333333335,1483.3333333333335,2966.666666666667,16
155_pomper_saffran_2016_44,3,yellow,44,155,yellow,distractor,95,7,0.9313725490196079,-0.10377358490566035,1,1,NA,290,0,1583.3333333333335,1583.3333333333335,3166.666666666667,19
155_pomper_saffran_2016_44,6,black,44,155,black,distractor,0,106,0,-0.0660377358490566,NA,0,NA,NA,0,NA,NA,NA,19
155_pomper_saffran_2016_44,7,orange,44,155,orange,distractor,71,7,0.9102564102564102,NA,2,1,NA,240,0,591.6666666666667,400,1566.6666666666667,19
155_pomper_saffran_2016_44,8,brown,44,155,brown,distractor,103,1,0.9903846153846154,NA,1,1,NA,90,0,1716.6666666666667,1716.6666666666667,3433.3333333333335,19
156_pomper_saffran_2016_46,9,green,46,156,green,distractor,7,96,0.06796116504854369,NA,NA,0,NA,NA,0,NA,NA,NA,21
156_pomper_saffran_2016_46,10,blue,46,156,blue,distractor,41,58,0.41414141414141414,NA,2,1,NA,340,2,341.6666666666667,466.6666666666667,933.3333333333334,21
156_pomper_saffran_2016_46,12,brown,46,156,brown,distractor,79,0,1,NA,1,1,NA,240,0,1316.6666666666667,1316.6666666666667,2633.3333333333335,21
156_pomper_saffran_2016_46,14,green,46,156,green,distractor,91,12,0.883495145631068,NA,1,1,NA,390,1,1516.6666666666667,1516.6666666666667,3033.3333333333335,21
157_pomper_saffran_2016_46,1,blue,46,157,blue,distractor,74,24,0.7551020408163265,NA,2,1,NA,90,2,616.6666666666667,1000.0000000000001,2000.0000000000002,21
157_pomper_saffran_2016_46,4,brown,46,157,brown,distractor,102,1,0.9902912621359223,NA,1,1,NA,115,0,1700.0000000000002,1700.0000000000002,3400.0000000000005,21
157_pomper_saffran_2016_46,6,yellow,46,157,yellow,distractor,65,27,0.7065217391304348,NA,1,1,NA,1040,1,1083.3333333333335,1083.3333333333335,2166.666666666667,21
158_pomper_saffran_2016_47,2,green,47,158,green,distractor,56,24,0.7,NA,2,1,NA,690,1,466.66666666666674,433.33333333333337,1000.0000000000001,22
158_pomper_saffran_2016_47,4,brown,47,158,brown,distractor,95,8,0.9223300970873787,0.5188679245283019,1,1,NA,290,0,1583.3333333333335,1583.3333333333335,3166.666666666667,22
158_pomper_saffran_2016_47,5,green,47,158,green,distractor,37,67,0.3557692307692308,NA,1,0,NA,NA,1,616.6666666666667,616.6666666666667,1233.3333333333335,22
158_pomper_saffran_2016_47,8,white,47,158,white,distractor,59,40,0.5959595959595959,0.4811320754716981,2,1,NA,540,3,491.6666666666667,400,1166.6666666666667,22
159_pomper_saffran_2016_47,9,red,47,159,red,distractor,94,9,0.912621359223301,NA,1,1,NA,315,0,1566.6666666666667,1566.6666666666667,3133.3333333333335,22
159_pomper_saffran_2016_47,14,red,47,159,red,distractor,0,76,0,NA,NA,0,NA,NA,0,NA,NA,NA,22
159_pomper_saffran_2016_47,15,brown,47,159,brown,distractor,87,16,0.8446601941747572,NA,1,1,NA,490,1,1450,1450,2900,22
159_pomper_saffran_2016_47,16,orange,47,159,orange,distractor,0,106,0,NA,NA,0,NA,NA,0,NA,NA,NA,22
160_pomper_saffran_2016_43,3,black,43,160,black,distractor,28,72,0.28,NA,1,1,NA,515,2,466.6666666666667,466.6666666666667,933.3333333333334,18
160_pomper_saffran_2016_43,4,brown,43,160,brown,distractor,66,29,0.6947368421052632,NA,3,1,NA,90,2,366.6666666666667,200,1333.3333333333335,18
160_pomper_saffran_2016_43,6,green,43,160,green,distractor,71,24,0.7473684210526316,NA,1,1,NA,340,1,1183.3333333333335,1183.3333333333335,2366.666666666667,18
160_pomper_saffran_2016_43,8,blue,43,160,blue,distractor,95,5,0.95,NA,1,1,NA,140,0,1583.3333333333335,1583.3333333333335,3166.666666666667,18
161_pomper_saffran_2016_44,3,yellow,44,161,yellow,distractor,89,12,0.8811881188118812,0.42452830188679247,1,1,NA,415,1,1483.3333333333335,1483.3333333333335,2966.666666666667,19
161_pomper_saffran_2016_44,4,white,44,161,white,distractor,80,17,0.8247422680412371,0.3207547169811321,2,1,NA,115,2,666.6666666666667,1083.3333333333335,2166.666666666667,19
161_pomper_saffran_2016_44,5,red,44,161,red,distractor,98,5,0.9514563106796117,NA,1,1,NA,215,0,1633.3333333333335,1633.3333333333335,3266.666666666667,19
161_pomper_saffran_2016_44,6,black,44,161,black,distractor,55,44,0.5555555555555556,0.4056603773584906,1,1,NA,440,2,916.6666666666667,916.6666666666667,1833.3333333333335,19
161_pomper_saffran_2016_44,8,brown,44,161,brown,distractor,53,46,0.5353535353535354,0.339622641509434,1,1,NA,490,2,800,800,1600,19
162_pomper_saffran_2016_45,13,yellow,45,162,yellow,distractor,42,34,0.5526315789473685,NA,1,0,NA,NA,1,700,700,1400,20
162_pomper_saffran_2016_45,15,white,45,162,white,distractor,57,47,0.5480769230769231,NA,1,1,NA,1240,1,950.0000000000001,950.0000000000001,1900.0000000000002,20
163_pomper_saffran_2016_46,3,black,46,163,black,distractor,74,29,0.7184466019417476,NA,1,1,NA,815,1,1233.3333333333335,1233.3333333333335,2466.666666666667,21
163_pomper_saffran_2016_46,5,green,46,163,green,distractor,103,0,1,NA,1,1,NA,90,0,1716.6666666666667,1716.6666666666667,3433.3333333333335,21
164_pomper_saffran_2016_45,9,red,45,164,red,distractor,106,0,1,NA,1,1,NA,15,0,1766.6666666666667,1766.6666666666667,3533.3333333333335,20
164_pomper_saffran_2016_45,11,yellow,45,164,yellow,distractor,27,77,0.25961538461538464,-0.22641509433962265,1,0,NA,NA,1,450.00000000000006,450.00000000000006,900.0000000000001,20
164_pomper_saffran_2016_45,12,white,45,164,white,distractor,63,36,0.6363636363636364,NA,2,1,NA,690,3,525,500.00000000000006,1100,20
164_pomper_saffran_2016_45,13,black,45,164,black,distractor,50,51,0.49504950495049505,-0.2547169811320754,2,1,NA,715,3,416.6666666666667,583.3333333333334,1166.6666666666667,20
164_pomper_saffran_2016_45,16,orange,45,164,orange,distractor,21,82,0.20388349514563106,NA,1,0,NA,NA,2,350,350,700,20
165_pomper_saffran_2016_46,7,red,46,165,red,distractor,61,7,0.8970588235294118,NA,1,1,NA,215,0,1016.6666666666667,1016.6666666666667,2033.3333333333335,21
166_pomper_saffran_2016_47,10,red,47,166,red,distractor,101,3,0.9711538461538461,NA,1,1,NA,140,0,1683.3333333333335,1683.3333333333335,3366.666666666667,22
166_pomper_saffran_2016_47,11,yellow,47,166,yellow,distractor,103,0,1,0.7075471698113207,1,1,NA,90,0,1716.6666666666667,1716.6666666666667,3433.3333333333335,22
166_pomper_saffran_2016_47,13,red,47,166,red,distractor,103,1,0.9903846153846154,NA,1,1,NA,90,0,1716.6666666666667,1716.6666666666667,3433.3333333333335,22
166_pomper_saffran_2016_47,14,black,47,166,black,distractor,75,28,0.7281553398058253,0.7075471698113207,1,1,NA,790,1,1250,1250,2500,22
166_pomper_saffran_2016_47,16,brown,47,166,brown,distractor,77,28,0.7333333333333333,NA,1,1,NA,740,1,1283.3333333333335,1283.3333333333335,2566.666666666667,22
167_pomper_saffran_2016_46,1,green,46,167,green,distractor,91,12,0.883495145631068,NA,1,1,NA,390,1,1516.6666666666667,1516.6666666666667,3033.3333333333335,21
167_pomper_saffran_2016_46,4,brown,46,167,brown,distractor,91,12,0.883495145631068,NA,1,1,NA,390,1,1516.6666666666667,1516.6666666666667,3033.3333333333335,21
167_pomper_saffran_2016_46,5,yellow,46,167,yellow,distractor,102,3,0.9714285714285714,NA,1,1,NA,115,0,1700.0000000000002,1700.0000000000002,3400.0000000000005,21
769_swingley_aslin_2002_15,2,opple,15,439,opple,distractor,55,49,0.5288461538461539,NA,1,1,NA,1290,1,916.6666666666667,916.6666666666667,1833.3333333333335,-10
769_swingley_aslin_2002_15,3,pity,15,439,pity,distractor,0,106,0,NA,NA,0,NA,NA,0,NA,NA,NA,-10
769_swingley_aslin_2002_15,11,gall,15,439,gall,distractor,26,76,0.2549019607843137,NA,1,1,NA,440,2,433.33333333333337,433.33333333333337,866.6666666666667,-10
769_swingley_aslin_2002_15,17,gall,15,439,gall,distractor,45,59,0.4326923076923077,NA,1,1,NA,15,1,600,600,1200,-10
769_swingley_aslin_2002_15,20,tog,15,439,tog,distractor,94,11,0.8952380952380953,NA,1,1,NA,315,0,1566.6666666666667,1566.6666666666667,3133.3333333333335,-10
770_swingley_aslin_2002_15,1,pity,15,440,pity,distractor,0,105,0,NA,NA,0,NA,NA,0,NA,NA,NA,-10
770_swingley_aslin_2002_15,3,cur,15,440,cur,distractor,84,15,0.8484848484848485,NA,2,1,NA,440,1,700,1166.6666666666667,2333.3333333333335,-10
770_swingley_aslin_2002_15,8,vaby,15,440,vaby,distractor,43,55,0.4387755102040816,NA,1,0,NA,NA,1,716.6666666666667,716.6666666666667,1433.3333333333335,-10
770_swingley_aslin_2002_15,12,opple,15,440,opple,distractor,18,70,0.20454545454545456,NA,1,1,NA,1190,2,300,300,600,-10
770_swingley_aslin_2002_15,14,cur,15,440,cur,distractor,71,23,0.7553191489361702,NA,2,1,NA,415,1,591.6666666666667,533.3333333333334,1300,-10
771_swingley_aslin_2002_15,3,cur,15,441,cur,distractor,37,65,0.3627450980392157,NA,1,0,NA,NA,1,616.6666666666667,616.6666666666667,1233.3333333333335,-10
771_swingley_aslin_2002_15,6,tog,15,441,tog,distractor,48,55,0.46601941747572817,NA,1,1,NA,890,2,800,800,1600,-10
771_swingley_aslin_2002_15,8,vaby,15,441,vaby,distractor,50,51,0.49504950495049505,NA,1,1,NA,215,1,783.3333333333334,783.3333333333334,1566.6666666666667,-10
771_swingley_aslin_2002_15,9,gall,15,441,gall,distractor,74,29,0.7184466019417476,NA,1,1,NA,815,1,1233.3333333333335,1233.3333333333335,2466.666666666667,-10
771_swingley_aslin_2002_15,12,opple,15,441,opple,distractor,71,33,0.6826923076923077,NA,1,1,NA,890,1,1183.3333333333335,1183.3333333333335,2366.666666666667,-10
771_swingley_aslin_2002_15,14,cur,15,441,cur,distractor,95,9,0.9134615384615384,NA,1,1,NA,290,0,1583.3333333333335,1583.3333333333335,3166.666666666667,-10
772_swingley_aslin_2002_15,6,tog,15,442,tog,distractor,53,48,0.5247524752475248,NA,1,1,NA,1215,1,883.3333333333334,883.3333333333334,1766.6666666666667,-10
772_swingley_aslin_2002_15,9,gall,15,442,gall,distractor,40,64,0.38461538461538464,NA,1,1,NA,1290,2,666.6666666666667,666.6666666666667,1333.3333333333335,-10
772_swingley_aslin_2002_15,16,gall,15,442,gall,distractor,63,41,0.6057692307692307,NA,1,1,NA,1090,1,1050,1050,2100,-10
773_swingley_aslin_2002_16,49,yitty,16,443,yitty,distractor,34,68,0.3333333333333333,NA,1,1,NA,790,2,566.6666666666667,566.6666666666667,1133.3333333333335,-9
773_swingley_aslin_2002_16,53,shawl,16,443,shawl,distractor,34,71,0.3238095238095238,NA,1,0,NA,NA,1,566.6666666666667,566.6666666666667,1133.3333333333335,-9
773_swingley_aslin_2002_16,57,mog,16,443,mog,distractor,69,36,0.6571428571428571,NA,1,1,NA,940,1,1150,1150,2300,-9
773_swingley_aslin_2002_16,58,kier,16,443,kier,distractor,0,106,0,NA,NA,0,NA,NA,0,NA,NA,NA,-9
774_swingley_aslin_2002_15,50,mog,15,444,mog,distractor,2,103,0.01904761904761905,NA,NA,0,NA,NA,0,NA,NA,NA,-10
774_swingley_aslin_2002_15,51,kier,15,444,kier,distractor,12,92,0.11538461538461539,NA,1,0,NA,NA,1,200,200,400,-10
774_swingley_aslin_2002_15,54,opal,15,444,opal,distractor,38,60,0.3877551020408163,NA,1,1,NA,940,2,633.3333333333334,633.3333333333334,1266.6666666666667,-10
775_swingley_aslin_2002_15,35,kier,15,445,kier,distractor,0,106,0,NA,NA,0,NA,NA,0,NA,NA,NA,-10
775_swingley_aslin_2002_15,37,raby,15,445,raby,distractor,37,66,0.3592233009708738,NA,1,1,NA,1090,2,616.6666666666667,616.6666666666667,1233.3333333333335,-10
775_swingley_aslin_2002_15,38,shawl,15,445,shawl,distractor,0,99,0,NA,NA,0,NA,NA,0,NA,NA,NA,-10
775_swingley_aslin_2002_15,39,opal,15,445,opal,distractor,34,68,0.3333333333333333,NA,1,1,NA,1190,2,533.3333333333334,533.3333333333334,1066.6666666666667,-10
775_swingley_aslin_2002_15,42,kier,15,445,kier,distractor,0,106,0,NA,NA,0,NA,NA,0,NA,NA,NA,-10
776_swingley_aslin_2002_14,40,shawl,14,446,shawl,distractor,0,106,0,NA,NA,0,NA,NA,0,NA,NA,NA,-11
776_swingley_aslin_2002_14,41,raby,14,446,raby,distractor,35,69,0.33653846153846156,NA,1,1,NA,1340,2,583.3333333333334,583.3333333333334,1166.6666666666667,-11
777_swingley_aslin_2002_15,46,shawl,15,447,shawl,distractor,78,27,0.7428571428571429,NA,1,1,NA,715,1,1300,1300,2600,-10
777_swingley_aslin_2002_15,51,yitty,15,447,yitty,distractor,0,106,0,NA,NA,0,NA,NA,0,NA,NA,NA,-10
777_swingley_aslin_2002_15,52,mog,15,447,mog,distractor,63,41,0.6057692307692307,NA,1,1,NA,1090,1,1050,1050,2100,-10
777_swingley_aslin_2002_15,59,mog,15,447,mog,distractor,25,78,0.24271844660194175,NA,1,0,NA,NA,1,416.6666666666667,416.6666666666667,833.3333333333334,-10
777_swingley_aslin_2002_15,63,kier,15,447,kier,distractor,1,97,0.01020408163265306,NA,NA,0,NA,NA,0,NA,NA,NA,-10
778_swingley_aslin_2002_15,71,kier,15,448,kier,distractor,40,60,0.4,NA,2,1,NA,190,3,333.33333333333337,416.6666666666667,833.3333333333334,-10
778_swingley_aslin_2002_15,74,raby,15,448,raby,distractor,51,53,0.49038461538461536,NA,1,1,NA,1390,1,850.0000000000001,850.0000000000001,1700.0000000000002,-10
778_swingley_aslin_2002_15,79,shawl,15,448,shawl,distractor,105,0,1,NA,1,1,NA,40,0,1750.0000000000002,1750.0000000000002,3500.0000000000005,-10
778_swingley_aslin_2002_15,81,opal,15,448,opal,distractor,19,76,0.2,NA,1,1,NA,1315,2,316.6666666666667,316.6666666666667,633.3333333333334,-10
778_swingley_aslin_2002_15,83,yitty,15,448,yitty,distractor,23,83,0.2169811320754717,NA,1,0,NA,NA,1,383.33333333333337,383.33333333333337,766.6666666666667,-10
779_swingley_aslin_2002_14,55,kier,14,449,kier,distractor,50,55,0.47619047619047616,NA,1,1,NA,1415,1,833.3333333333334,833.3333333333334,1666.6666666666667,-11
779_swingley_aslin_2002_14,99,opal,14,449,opal,distractor,10,92,0.09803921568627451,NA,NA,1,NA,990,0,NA,NA,NA,-11
779_swingley_aslin_2002_14,105,raby,14,449,raby,distractor,55,49,0.5288461538461539,NA,1,1,NA,515,2,916.6666666666667,916.6666666666667,1833.3333333333335,-11
779_swingley_aslin_2002_14,110,shawl,14,449,shawl,distractor,52,12,0.8125,NA,2,1,NA,340,1,433.33333333333337,433.33333333333337,866.6666666666667,-11
780_swingley_aslin_2002_14,49,yitty,14,450,yitty,distractor,94,10,0.9038461538461539,NA,1,1,NA,140,0,1566.6666666666667,1566.6666666666667,3133.3333333333335,-11
780_swingley_aslin_2002_14,51,kier,14,450,kier,distractor,58,44,0.5686274509803921,NA,2,1,NA,90,2,483.33333333333337,733.3333333333334,1466.6666666666667,-11
780_swingley_aslin_2002_14,52,raby,14,450,raby,distractor,104,1,0.9904761904761905,NA,1,1,NA,15,0,1733.3333333333335,1733.3333333333335,3466.666666666667,-11
780_swingley_aslin_2002_14,53,shawl,14,450,shawl,distractor,58,47,0.5523809523809524,NA,1,1,NA,1215,1,966.6666666666667,966.6666666666667,1933.3333333333335,-11
780_swingley_aslin_2002_14,56,raby,14,450,raby,distractor,65,37,0.6372549019607843,NA,1,1,NA,990,1,900.0000000000001,900.0000000000001,1800.0000000000002,-11
780_swingley_aslin_2002_14,57,mog,14,450,mog,distractor,74,29,0.7184466019417476,NA,1,1,NA,815,1,1233.3333333333335,1233.3333333333335,2466.666666666667,-11
780_swingley_aslin_2002_14,58,kier,14,450,kier,distractor,58,44,0.5686274509803921,NA,1,1,NA,1140,1,966.6666666666667,966.6666666666667,1933.3333333333335,-11
780_swingley_aslin_2002_14,59,yitty,14,450,yitty,distractor,32,59,0.3516483516483517,NA,1,1,NA,890,2,533.3333333333334,533.3333333333334,1066.6666666666667,-11
781_swingley_aslin_2002_15,89,kier,15,451,kier,distractor,83,21,0.7980769230769231,NA,1,1,NA,590,1,1383.3333333333335,1383.3333333333335,2766.666666666667,-10
781_swingley_aslin_2002_15,92,raby,15,451,raby,distractor,0,106,0,NA,NA,0,NA,NA,0,NA,NA,NA,-10
781_swingley_aslin_2002_15,97,shawl,15,451,shawl,distractor,0,93,0,NA,NA,0,NA,NA,0,NA,NA,NA,-10
781_swingley_aslin_2002_15,99,opal,15,451,opal,distractor,0,106,0,NA,NA,0,NA,NA,0,NA,NA,NA,-10
782_swingley_aslin_2002_15,36,mog,15,452,mog,distractor,73,30,0.7087378640776699,NA,1,1,NA,290,1,1216.6666666666667,1216.6666666666667,2433.3333333333335,-10
782_swingley_aslin_2002_15,38,shawl,15,452,shawl,distractor,72,30,0.7058823529411765,NA,1,1,NA,740,1,1200,1200,2400,-10
782_swingley_aslin_2002_15,41,raby,15,452,raby,distractor,54,47,0.5346534653465347,NA,1,1,NA,890,2,900.0000000000001,900.0000000000001,1800.0000000000002,-10
782_swingley_aslin_2002_15,42,kier,15,452,kier,distractor,90,13,0.8737864077669902,NA,1,1,NA,415,1,1500,1500,3000,-10
782_swingley_aslin_2002_15,44,yitty,15,452,yitty,distractor,65,37,0.6372549019607843,NA,1,1,NA,490,2,1083.3333333333335,1083.3333333333335,2166.666666666667,-10
783_swingley_aslin_2002_15,36,mog,15,453,mog,distractor,0,106,0,NA,NA,0,NA,NA,0,NA,NA,NA,-10
784_swingley_aslin_2002_15,33,kier,15,454,kier,distractor,55,49,0.5288461538461539,NA,1,1,NA,1290,1,916.6666666666667,916.6666666666667,1833.3333333333335,-10
784_swingley_aslin_2002_15,42,yitty,15,454,yitty,distractor,30,75,0.2857142857142857,NA,1,1,NA,740,2,500.00000000000006,500.00000000000006,1000.0000000000001,-10
784_swingley_aslin_2002_15,46,shawl,15,454,shawl,distractor,68,31,0.6868686868686869,NA,2,1,NA,90,2,566.6666666666667,816.6666666666667,1633.3333333333335,-10
784_swingley_aslin_2002_15,51,yitty,15,454,yitty,distractor,0,106,0,NA,NA,0,NA,NA,0,NA,NA,NA,-10
784_swingley_aslin_2002_15,53,opal,15,454,opal,distractor,46,58,0.4423076923076923,NA,1,1,NA,290,1,766.6666666666667,766.6666666666667,1533.3333333333335,-10
785_swingley_aslin_2002_14,47,mog,14,455,mog,distractor,52,47,0.5252525252525253,NA,1,1,NA,290,1,833.3333333333334,833.3333333333334,1666.6666666666667,-11
785_swingley_aslin_2002_14,48,kier,14,455,kier,distractor,16,87,0.1553398058252427,NA,1,1,NA,1090,2,266.6666666666667,266.6666666666667,533.3333333333334,-11
785_swingley_aslin_2002_14,49,raby,14,455,raby,distractor,81,23,0.7788461538461539,NA,1,1,NA,640,1,1350,1350,2700,-11
785_swingley_aslin_2002_14,51,opal,14,455,opal,distractor,50,55,0.47619047619047616,NA,1,1,NA,1415,1,833.3333333333334,833.3333333333334,1666.6666666666667,-11
785_swingley_aslin_2002_14,54,mog,14,455,mog,distractor,45,58,0.4368932038834951,NA,2,1,NA,115,2,375,466.6666666666667,933.3333333333334,-11
785_swingley_aslin_2002_14,55,kier,14,455,kier,distractor,59,45,0.5673076923076923,NA,1,1,NA,1190,1,983.3333333333334,983.3333333333334,1966.6666666666667,-11
786_swingley_aslin_2002_15,36,mog,15,456,mog,distractor,40,63,0.3883495145631068,NA,1,1,NA,690,2,666.6666666666667,666.6666666666667,1333.3333333333335,-10
786_swingley_aslin_2002_15,40,shawl,15,456,shawl,distractor,105,0,1,NA,1,1,NA,40,0,1750.0000000000002,1750.0000000000002,3500.0000000000005,-10
786_swingley_aslin_2002_15,41,raby,15,456,raby,distractor,0,106,0,NA,NA,0,NA,NA,0,NA,NA,NA,-10
786_swingley_aslin_2002_15,42,kier,15,456,kier,distractor,23,70,0.24731182795698925,NA,1,1,NA,240,2,216.66666666666669,216.66666666666669,433.33333333333337,-10
786_swingley_aslin_2002_15,43,mog,15,456,mog,distractor,24,79,0.23300970873786409,NA,1,1,NA,540,2,400,400,800,-10
787_swingley_aslin_2002_14,48,opal,14,457,opal,distractor,54,50,0.5192307692307693,NA,1,1,NA,440,2,900.0000000000001,900.0000000000001,1800.0000000000002,-11
787_swingley_aslin_2002_14,50,mog,14,457,mog,distractor,54,51,0.5142857142857142,NA,1,1,NA,1315,1,900.0000000000001,900.0000000000001,1800.0000000000002,-11
787_swingley_aslin_2002_14,51,kier,14,457,kier,distractor,50,51,0.49504950495049505,NA,2,1,NA,540,3,416.6666666666667,300,1066.6666666666667,-11
787_swingley_aslin_2002_14,52,raby,14,457,raby,distractor,37,56,0.3978494623655914,NA,1,1,NA,740,2,566.6666666666667,566.6666666666667,1133.3333333333335,-11
787_swingley_aslin_2002_14,53,shawl,14,457,shawl,distractor,13,90,0.1262135922330097,NA,1,1,NA,990,2,216.66666666666669,216.66666666666669,433.33333333333337,-11
787_swingley_aslin_2002_14,57,mog,14,457,mog,distractor,16,89,0.1523809523809524,NA,1,0,NA,NA,1,266.6666666666667,266.6666666666667,533.3333333333334,-11
787_swingley_aslin_2002_14,58,kier,14,457,kier,distractor,28,72,0.28,NA,2,1,NA,915,3,233.33333333333334,266.6666666666667,533.3333333333334,-11
788_swingley_aslin_2002_15,48,opal,15,458,opal,distractor,58,43,0.5742574257425742,NA,1,1,NA,590,2,966.6666666666667,966.6666666666667,1933.3333333333335,-10
788_swingley_aslin_2002_15,49,yitty,15,458,yitty,distractor,13,91,0.125,NA,1,0,NA,NA,1,216.66666666666669,216.66666666666669,433.33333333333337,-10
788_swingley_aslin_2002_15,57,mog,15,458,mog,distractor,63,39,0.6176470588235294,NA,2,1,NA,315,2,525,333.33333333333337,1433.3333333333335,-10
788_swingley_aslin_2002_15,59,yitty,15,458,yitty,distractor,51,53,0.49038461538461536,NA,1,1,NA,315,1,850.0000000000001,850.0000000000001,1700.0000000000002,-10
789_swingley_aslin_2002_15,45,opal,15,459,opal,distractor,13,87,0.13,NA,1,1,NA,790,2,216.66666666666669,216.66666666666669,433.33333333333337,-10
789_swingley_aslin_2002_15,46,yitty,15,459,yitty,distractor,42,54,0.4375,NA,2,1,NA,815,3,350,416.6666666666667,833.3333333333334,-10
789_swingley_aslin_2002_15,47,mog,15,459,mog,distractor,38,64,0.37254901960784315,NA,1,0,NA,NA,1,633.3333333333334,633.3333333333334,1266.6666666666667,-10
789_swingley_aslin_2002_15,49,raby,15,459,raby,distractor,66,36,0.6470588235294118,NA,1,1,NA,90,1,1100,1100,2200,-10
789_swingley_aslin_2002_15,53,raby,15,459,raby,distractor,75,29,0.7211538461538461,NA,1,1,NA,790,1,1250,1250,2500,-10
789_swingley_aslin_2002_15,55,kier,15,459,kier,distractor,44,61,0.41904761904761906,NA,1,1,NA,415,2,733.3333333333334,733.3333333333334,1466.6666666666667,-10
790_swingley_aslin_2002_15,1,cur,15,460,cur,distractor,93,11,0.8942307692307693,NA,1,1,NA,190,0,1550,1550,3100,-10
790_swingley_aslin_2002_15,97,vaby,15,460,vaby,distractor,86,20,0.8113207547169812,NA,1,1,NA,515,1,1433.3333333333335,1433.3333333333335,2866.666666666667,-10
790_swingley_aslin_2002_15,99,tog,15,460,tog,distractor,35,69,0.33653846153846156,NA,1,1,NA,1315,2,583.3333333333334,583.3333333333334,1166.6666666666667,-10
790_swingley_aslin_2002_15,101,gall,15,460,gall,distractor,43,38,0.5308641975308642,NA,1,0,NA,NA,1,716.6666666666667,716.6666666666667,1433.3333333333335,-10
790_swingley_aslin_2002_15,103,vaby,15,460,vaby,distractor,45,60,0.42857142857142855,NA,1,0,NA,NA,1,750,750,1500,-10
791_swingley_aslin_2002_14,1,pity,14,461,pity,distractor,99,5,0.9519230769230769,NA,1,1,NA,190,0,1650.0000000000002,1650.0000000000002,3300.0000000000005,-11
791_swingley_aslin_2002_14,3,cur,14,461,cur,distractor,87,17,0.8365384615384616,NA,1,1,NA,490,1,1450,1450,2900,-11
791_swingley_aslin_2002_14,16,gall,14,461,gall,distractor,0,106,0,NA,NA,0,NA,NA,0,NA,NA,NA,-11
792_swingley_aslin_2002_14,2,opple,14,462,opple,distractor,52,49,0.5148514851485149,NA,1,1,NA,1290,1,866.6666666666667,866.6666666666667,1733.3333333333335,-11
792_swingley_aslin_2002_14,5,tog,14,462,tog,distractor,58,43,0.5742574257425742,NA,1,1,NA,390,2,966.6666666666667,966.6666666666667,1933.3333333333335,-11
792_swingley_aslin_2002_14,11,gall,14,462,gall,distractor,57,42,0.5757575757575758,NA,1,1,NA,615,2,816.6666666666667,816.6666666666667,1633.3333333333335,-11
792_swingley_aslin_2002_14,18,vaby,14,462,vaby,distractor,77,28,0.7333333333333333,NA,1,1,NA,740,1,1283.3333333333335,1283.3333333333335,2566.666666666667,-11
792_swingley_aslin_2002_14,23,cur,14,462,cur,distractor,0,106,0,NA,NA,0,NA,NA,0,NA,NA,NA,-11
792_swingley_aslin_2002_14,25,pity,14,462,pity,distractor,67,34,0.6633663366336634,NA,2,1,NA,390,3,558.3333333333334,666.6666666666667,1333.3333333333335,-11
793_swingley_aslin_2002_15,3,pity,15,463,pity,distractor,13,79,0.14130434782608695,NA,1,0,NA,NA,2,216.66666666666669,216.66666666666669,433.33333333333337,-10
793_swingley_aslin_2002_15,10,vaby,15,463,vaby,distractor,37,65,0.3627450980392157,NA,1,0,NA,NA,1,616.6666666666667,616.6666666666667,1233.3333333333335,-10
793_swingley_aslin_2002_15,11,gall,15,463,gall,distractor,0,106,0,NA,NA,0,NA,NA,0,NA,NA,NA,-10
793_swingley_aslin_2002_15,13,opple,15,463,opple,distractor,44,50,0.46808510638297873,NA,1,1,NA,415,1,733.3333333333334,733.3333333333334,1466.6666666666667,-10
793_swingley_aslin_2002_15,20,tog,15,463,tog,distractor,65,39,0.625,NA,1,1,NA,1040,1,1083.3333333333335,1083.3333333333335,2166.666666666667,-10
793_swingley_aslin_2002_15,23,cur,15,463,cur,distractor,82,21,0.7961165048543689,NA,1,1,NA,615,1,1366.6666666666667,1366.6666666666667,2733.3333333333335,-10
793_swingley_aslin_2002_15,25,pity,15,463,pity,distractor,38,62,0.38,NA,1,1,NA,940,2,633.3333333333334,633.3333333333334,1266.6666666666667,-10
794_swingley_aslin_2002_15,1,pity,15,464,pity,distractor,6,99,0.05714285714285714,NA,NA,0,NA,NA,0,NA,NA,NA,-10
794_swingley_aslin_2002_15,132,vaby,15,464,vaby,distractor,63,42,0.6,NA,1,1,NA,15,1,1050,1050,2100,-10
794_swingley_aslin_2002_15,135,gall,15,464,gall,distractor,0,106,0,NA,NA,0,NA,NA,0,NA,NA,NA,-10
794_swingley_aslin_2002_15,136,opple,15,464,opple,distractor,86,17,0.8349514563106796,NA,1,1,NA,515,1,1433.3333333333335,1433.3333333333335,2866.666666666667,-10
794_swingley_aslin_2002_15,137,tog,15,464,tog,distractor,37,55,0.40217391304347827,NA,1,1,NA,1190,1,616.6666666666667,616.6666666666667,1233.3333333333335,-10
794_swingley_aslin_2002_15,138,pity,15,464,pity,distractor,26,39,0.4,NA,1,0,NA,NA,1,433.33333333333337,433.33333333333337,866.6666666666667,-10
794_swingley_aslin_2002_15,141,gall,15,464,gall,distractor,0,106,0,NA,NA,0,NA,NA,0,NA,NA,NA,-10
795_swingley_aslin_2002_15,1,pity,15,465,pity,distractor,0,75,0,NA,NA,0,NA,NA,0,NA,NA,NA,-10
795_swingley_aslin_2002_15,131,cur,15,465,cur,distractor,57,48,0.5428571428571428,NA,1,1,NA,390,2,950.0000000000001,950.0000000000001,1900.0000000000002,-10
795_swingley_aslin_2002_15,132,vaby,15,465,vaby,distractor,73,32,0.6952380952380952,NA,1,1,NA,840,1,1216.6666666666667,1216.6666666666667,2433.3333333333335,-10
795_swingley_aslin_2002_15,134,opple,15,465,opple,distractor,29,76,0.2761904761904762,NA,1,0,NA,NA,1,483.33333333333337,483.33333333333337,966.6666666666667,-10
795_swingley_aslin_2002_15,136,opple,15,465,opple,distractor,76,27,0.7378640776699029,NA,1,1,NA,315,1,1266.6666666666667,1266.6666666666667,2533.3333333333335,-10
795_swingley_aslin_2002_15,137,tog,15,465,tog,distractor,31,63,0.32978723404255317,NA,1,0,NA,NA,1,516.6666666666667,516.6666666666667,1033.3333333333335,-10
796_swingley_aslin_2002_15,132,vaby,15,466,vaby,distractor,0,106,0,NA,NA,0,NA,NA,0,NA,NA,NA,-10
796_swingley_aslin_2002_15,134,opple,15,466,opple,distractor,91,13,0.875,NA,1,1,NA,390,1,1516.6666666666667,1516.6666666666667,3033.3333333333335,-10
796_swingley_aslin_2002_15,138,pity,15,466,pity,distractor,80,22,0.7843137254901961,NA,1,1,NA,490,1,1333.3333333333335,1333.3333333333335,2666.666666666667,-10
796_swingley_aslin_2002_15,139,vaby,15,466,vaby,distractor,26,74,0.26,NA,1,1,NA,190,1,433.33333333333337,433.33333333333337,866.6666666666667,-10
797_swingley_aslin_2002_14,2,opple,14,467,opple,distractor,41,56,0.422680412371134,NA,1,1,NA,690,2,600,600,1200,-11
797_swingley_aslin_2002_14,3,pity,14,467,pity,distractor,15,89,0.14423076923076922,NA,1,0,NA,NA,1,250.00000000000003,250.00000000000003,500.00000000000006,-11
797_swingley_aslin_2002_14,10,vaby,14,467,vaby,distractor,22,83,0.20952380952380953,NA,1,0,NA,NA,1,366.6666666666667,366.6666666666667,733.3333333333334,-11
797_swingley_aslin_2002_14,18,vaby,14,467,vaby,distractor,0,106,0,NA,NA,0,NA,NA,0,NA,NA,NA,-11
797_swingley_aslin_2002_14,23,cur,14,467,cur,distractor,0,106,0,NA,NA,0,NA,NA,0,NA,NA,NA,-11
797_swingley_aslin_2002_14,25,pity,14,467,pity,distractor,46,57,0.44660194174757284,NA,1,1,NA,840,2,766.6666666666667,766.6666666666667,1533.3333333333335,-11
798_swingley_aslin_2002_14,1,cur,14,468,cur,distractor,69,35,0.6634615384615384,NA,1,1,NA,15,1,1150,1150,2300,-11
798_swingley_aslin_2002_14,97,vaby,14,468,vaby,distractor,39,65,0.375,NA,1,0,NA,NA,1,650,650,1300,-11
798_swingley_aslin_2002_14,100,opple,14,468,opple,distractor,50,55,0.47619047619047616,NA,1,1,NA,1415,1,833.3333333333334,833.3333333333334,1666.6666666666667,-11
798_swingley_aslin_2002_14,101,gall,14,468,gall,distractor,49,55,0.47115384615384615,NA,1,1,NA,1440,1,816.6666666666667,816.6666666666667,1633.3333333333335,-11
798_swingley_aslin_2002_14,102,tog,14,468,tog,distractor,51,53,0.49038461538461536,NA,1,1,NA,1390,1,850.0000000000001,850.0000000000001,1700.0000000000002,-11
798_swingley_aslin_2002_14,118,opple,14,468,opple,distractor,73,32,0.6952380952380952,NA,1,1,NA,840,1,1216.6666666666667,1216.6666666666667,2433.3333333333335,-11
798_swingley_aslin_2002_14,119,cur,14,468,cur,distractor,0,56,0,NA,NA,0,NA,NA,0,NA,NA,NA,-11
799_swingley_aslin_2002_14,1,pity,14,469,pity,distractor,53,52,0.5047619047619047,NA,1,1,NA,1340,1,883.3333333333334,883.3333333333334,1766.6666666666667,-11
799_swingley_aslin_2002_14,131,cur,14,469,cur,distractor,54,51,0.5142857142857142,NA,1,1,NA,1315,1,900.0000000000001,900.0000000000001,1800.0000000000002,-11
799_swingley_aslin_2002_14,134,opple,14,469,opple,distractor,41,62,0.39805825242718446,NA,1,1,NA,615,2,533.3333333333334,533.3333333333334,1066.6666666666667,-11
799_swingley_aslin_2002_14,136,opple,14,469,opple,distractor,33,56,0.3707865168539326,NA,1,1,NA,815,2,550,550,1100,-11
800_swingley_aslin_2002_14,2,opple,14,470,opple,distractor,0,106,0,NA,NA,0,NA,NA,0,NA,NA,NA,-11
800_swingley_aslin_2002_14,3,pity,14,470,pity,distractor,87,13,0.87,NA,2,1,NA,190,0,725,766.6666666666667,1533.3333333333335,-11
800_swingley_aslin_2002_14,17,gall,14,470,gall,distractor,65,38,0.6310679611650486,NA,1,1,NA,515,2,1083.3333333333335,1083.3333333333335,2166.666666666667,-11
800_swingley_aslin_2002_14,18,vaby,14,470,vaby,distractor,0,106,0,NA,NA,0,NA,NA,0,NA,NA,NA,-11
800_swingley_aslin_2002_14,23,cur,14,470,cur,distractor,85,20,0.8095238095238095,NA,1,1,NA,540,1,1416.6666666666667,1416.6666666666667,2833.3333333333335,-11
801_swingley_aslin_2002_14,1,cur,14,471,cur,distractor,53,52,0.5047619047619047,NA,1,1,NA,1340,1,883.3333333333334,883.3333333333334,1766.6666666666667,-11
801_swingley_aslin_2002_14,20,pity,14,471,pity,distractor,25,77,0.24509803921568626,NA,1,1,NA,740,2,333.33333333333337,333.33333333333337,666.6666666666667,-11
801_swingley_aslin_2002_14,100,opple,14,471,opple,distractor,50,52,0.49019607843137253,NA,1,1,NA,140,1,650,650,1300,-11
801_swingley_aslin_2002_14,103,vaby,14,471,vaby,distractor,37,64,0.36633663366336633,NA,1,0,NA,NA,1,616.6666666666667,616.6666666666667,1233.3333333333335,-11
801_swingley_aslin_2002_14,118,opple,14,471,opple,distractor,67,37,0.6442307692307693,NA,1,1,NA,990,1,1116.6666666666667,1116.6666666666667,2233.3333333333335,-11
802_swingley_aslin_2002_15,46,yitty,15,472,yitty,distractor,29,74,0.2815533980582524,NA,1,1,NA,1390,2,483.33333333333337,483.33333333333337,966.6666666666667,-10
802_swingley_aslin_2002_15,89,kier,15,472,kier,distractor,57,46,0.5533980582524272,NA,1,1,NA,115,1,950.0000000000001,950.0000000000001,1900.0000000000002,-10
802_swingley_aslin_2002_15,92,raby,15,472,raby,distractor,0,106,0,NA,NA,0,NA,NA,0,NA,NA,NA,-10
802_swingley_aslin_2002_15,97,shawl,15,472,shawl,distractor,47,57,0.4519230769230769,NA,1,1,NA,1015,2,783.3333333333334,783.3333333333334,1566.6666666666667,-10
802_swingley_aslin_2002_15,99,opal,15,472,opal,distractor,65,40,0.6190476190476191,NA,1,1,NA,1040,1,1083.3333333333335,1083.3333333333335,2166.666666666667,-10
802_swingley_aslin_2002_15,101,yitty,15,472,yitty,distractor,32,72,0.3076923076923077,NA,1,0,NA,NA,1,533.3333333333334,533.3333333333334,1066.6666666666667,-10
802_swingley_aslin_2002_15,105,raby,15,472,raby,distractor,63,41,0.6057692307692307,NA,1,1,NA,1090,1,1050,1050,2100,-10
802_swingley_aslin_2002_15,108,opal,15,472,opal,distractor,50,51,0.49504950495049505,NA,1,1,NA,990,2,833.3333333333334,833.3333333333334,1666.6666666666667,-10
803_swingley_aslin_2002_15,33,kier,15,473,kier,distractor,62,41,0.6019417475728155,NA,1,1,NA,1115,1,1033.3333333333335,1033.3333333333335,2066.666666666667,-10
803_swingley_aslin_2002_15,47,raby,15,473,raby,distractor,56,46,0.5490196078431373,NA,1,1,NA,690,2,933.3333333333334,933.3333333333334,1866.6666666666667,-10
803_swingley_aslin_2002_15,51,yitty,15,473,yitty,distractor,0,106,0,NA,NA,0,NA,NA,0,NA,NA,NA,-10
803_swingley_aslin_2002_15,53,opal,15,473,opal,distractor,61,40,0.6039603960396039,NA,2,1,NA,215,2,508.33333333333337,516.6666666666667,1033.3333333333335,-10
803_swingley_aslin_2002_15,61,raby,15,473,raby,distractor,87,17,0.8365384615384616,NA,1,1,NA,490,1,1450,1450,2900,-10
804_swingley_aslin_2002_14,89,kier,14,474,kier,distractor,11,93,0.10576923076923077,NA,NA,0,NA,NA,0,NA,NA,NA,-11
804_swingley_aslin_2002_14,97,shawl,14,474,shawl,distractor,0,106,0,NA,NA,0,NA,NA,0,NA,NA,NA,-11
804_swingley_aslin_2002_14,99,opal,14,474,opal,distractor,0,65,0,NA,NA,0,NA,NA,0,NA,NA,NA,-11
804_swingley_aslin_2002_14,101,yitty,14,474,yitty,distractor,62,40,0.6078431372549019,NA,1,1,NA,1115,1,1033.3333333333335,1033.3333333333335,2066.666666666667,-11
804_swingley_aslin_2002_14,108,opal,14,474,opal,distractor,0,106,0,NA,NA,0,NA,NA,0,NA,NA,NA,-11
805_swingley_aslin_2002_15,1,pity,15,475,pity,distractor,0,59,0,NA,NA,0,NA,NA,0,NA,NA,NA,-10
805_swingley_aslin_2002_15,9,gall,15,475,gall,distractor,33,68,0.32673267326732675,NA,1,1,NA,1140,2,433.33333333333337,433.33333333333337,866.6666666666667,-10
805_swingley_aslin_2002_15,14,cur,15,475,cur,distractor,52,49,0.5148514851485149,NA,2,1,NA,615,3,433.33333333333337,250.00000000000003,1233.3333333333335,-10
805_swingley_aslin_2002_15,16,gall,15,475,gall,distractor,30,73,0.2912621359223301,NA,1,0,NA,NA,1,500.00000000000006,500.00000000000006,1000.0000000000001,-10
806_swingley_aslin_2002_15,1,opple,15,476,opple,distractor,53,50,0.5145631067961165,NA,1,1,NA,915,2,883.3333333333334,883.3333333333334,1766.6666666666667,-10
806_swingley_aslin_2002_15,10,gall,15,476,gall,distractor,34,65,0.3434343434343434,NA,1,1,NA,990,2,466.6666666666667,466.6666666666667,933.3333333333334,-10
806_swingley_aslin_2002_15,16,gall,15,476,gall,distractor,86,19,0.819047619047619,NA,1,1,NA,515,1,1433.3333333333335,1433.3333333333335,2866.666666666667,-10
806_swingley_aslin_2002_15,17,vaby,15,476,vaby,distractor,27,77,0.25961538461538464,NA,1,1,NA,40,1,450.00000000000006,450.00000000000006,900.0000000000001,-10
806_swingley_aslin_2002_15,24,pity,15,476,pity,distractor,24,76,0.24,NA,1,1,NA,640,2,400,400,800,-10
807_swingley_aslin_2002_15,55,kier,15,477,kier,distractor,42,19,0.6885245901639344,NA,2,1,NA,90,2,350,233.33333333333334,933.3333333333334,-10
807_swingley_aslin_2002_15,92,raby,15,477,raby,distractor,22,79,0.21782178217821782,NA,1,1,NA,940,2,366.6666666666667,366.6666666666667,733.3333333333334,-10
807_swingley_aslin_2002_15,99,opal,15,477,opal,distractor,0,106,0,NA,NA,0,NA,NA,0,NA,NA,NA,-10
807_swingley_aslin_2002_15,100,mog,15,477,mog,distractor,2,101,0.019417475728155338,NA,NA,0,NA,NA,0,NA,NA,NA,-10
807_swingley_aslin_2002_15,101,yitty,15,477,yitty,distractor,83,20,0.8058252427184466,NA,1,1,NA,590,1,1383.3333333333335,1383.3333333333335,2766.666666666667,-10
808_swingley_aslin_2002_15,1,cur,15,478,cur,distractor,0,106,0,NA,NA,0,NA,NA,0,NA,NA,NA,-10
808_swingley_aslin_2002_15,97,vaby,15,478,vaby,distractor,23,80,0.22330097087378642,NA,1,0,NA,NA,1,383.33333333333337,383.33333333333337,766.6666666666667,-10
808_swingley_aslin_2002_15,99,tog,15,478,tog,distractor,65,39,0.625,NA,1,1,NA,1040,1,1083.3333333333335,1083.3333333333335,2166.666666666667,-10
808_swingley_aslin_2002_15,118,opple,15,478,opple,distractor,47,56,0.4563106796116505,NA,1,0,NA,NA,1,783.3333333333334,783.3333333333334,1566.6666666666667,-10
809_swingley_aslin_2002_14,1,pity,14,479,pity,distractor,47,55,0.46078431372549017,NA,1,1,NA,1415,1,783.3333333333334,783.3333333333334,1566.6666666666667,-11
809_swingley_aslin_2002_14,3,cur,14,479,cur,distractor,40,61,0.39603960396039606,NA,2,1,NA,140,2,333.33333333333337,316.6666666666667,700,-11
809_swingley_aslin_2002_14,9,gall,14,479,gall,distractor,44,56,0.44,NA,1,1,NA,390,2,683.3333333333334,683.3333333333334,1366.6666666666667,-11
809_swingley_aslin_2002_14,122,opple,14,479,opple,distractor,70,33,0.6796116504854369,NA,1,1,NA,640,1,1166.6666666666667,1166.6666666666667,2333.3333333333335,-11
810_swingley_aslin_2002_14,21,cur,14,480,cur,distractor,46,55,0.45544554455445546,NA,1,1,NA,790,2,766.6666666666667,766.6666666666667,1533.3333333333335,-11
810_swingley_aslin_2002_14,132,vaby,14,480,vaby,distractor,24,78,0.23529411764705882,NA,1,1,NA,515,2,400,400,800,-11
810_swingley_aslin_2002_14,135,gall,14,480,gall,distractor,67,34,0.6633663366336634,NA,1,1,NA,390,1,950.0000000000001,950.0000000000001,1900.0000000000002,-11
810_swingley_aslin_2002_14,139,vaby,14,480,vaby,distractor,45,53,0.45918367346938777,NA,2,1,NA,115,3,375,416.6666666666667,833.3333333333334,-11
811_swingley_aslin_2002_14,1,pity,14,481,pity,distractor,40,58,0.40816326530612246,NA,2,1,NA,315,2,333.33333333333337,416.6666666666667,833.3333333333334,-11
811_swingley_aslin_2002_14,133,tog,14,481,tog,distractor,38,62,0.38,NA,1,1,NA,1190,2,633.3333333333334,633.3333333333334,1266.6666666666667,-11
811_swingley_aslin_2002_14,138,pity,14,481,pity,distractor,42,58,0.42,NA,2,1,NA,890,3,350,483.33333333333337,966.6666666666667,-11
811_swingley_aslin_2002_14,139,vaby,14,481,vaby,distractor,27,77,0.25961538461538464,NA,1,0,NA,NA,1,450.00000000000006,450.00000000000006,900.0000000000001,-11
812_swingley_aslin_2002_15,33,kier,15,482,kier,distractor,56,45,0.5544554455445545,NA,2,1,NA,240,2,466.6666666666667,650,1300,-10
812_swingley_aslin_2002_15,47,raby,15,482,raby,distractor,0,106,0,NA,NA,0,NA,NA,0,NA,NA,NA,-10
812_swingley_aslin_2002_15,55,shawl,15,482,shawl,distractor,50,48,0.5102040816326531,NA,2,1,NA,490,3,416.6666666666667,400,866.6666666666667,-10
813_swingley_aslin_2002_14,2,opple,14,483,opple,distractor,62,43,0.5904761904761905,NA,1,1,NA,1115,1,1033.3333333333335,1033.3333333333335,2066.666666666667,-11
813_swingley_aslin_2002_14,10,vaby,14,483,vaby,distractor,91,13,0.875,NA,1,1,NA,390,1,1516.6666666666667,1516.6666666666667,3033.3333333333335,-11
813_swingley_aslin_2002_14,20,tog,14,483,tog,distractor,0,106,0,NA,NA,0,NA,NA,0,NA,NA,NA,-11
813_swingley_aslin_2002_14,25,pity,14,483,pity,distractor,36,67,0.34951456310679613,NA,1,1,NA,90,1,600,600,1200,-11
814_swingley_aslin_2002_14,2,opple,14,484,opple,distractor,33,72,0.3142857142857143,NA,1,1,NA,890,2,550,550,1100,-11
814_swingley_aslin_2002_14,5,tog,14,484,tog,distractor,57,46,0.5533980582524272,NA,1,1,NA,490,2,950.0000000000001,950.0000000000001,1900.0000000000002,-11
814_swingley_aslin_2002_14,9,cur,14,484,cur,distractor,0,106,0,NA,NA,0,NA,NA,0,NA,NA,NA,-11
814_swingley_aslin_2002_14,17,gall,14,484,gall,distractor,33,72,0.3142857142857143,NA,1,1,NA,390,2,550,550,1100,-11
814_swingley_aslin_2002_14,18,vaby,14,484,vaby,distractor,35,69,0.33653846153846156,NA,1,1,NA,440,2,583.3333333333334,583.3333333333334,1166.6666666666667,-11
814_swingley_aslin_2002_14,20,tog,14,484,tog,distractor,56,48,0.5384615384615384,NA,1,1,NA,515,2,933.3333333333334,933.3333333333334,1866.6666666666667,-11
814_swingley_aslin_2002_14,23,cur,14,484,cur,distractor,63,41,0.6057692307692307,NA,1,1,NA,1090,1,1050,1050,2100,-11
814_swingley_aslin_2002_14,25,pity,14,484,pity,distractor,17,88,0.1619047619047619,NA,1,0,NA,NA,1,283.33333333333337,283.33333333333337,566.6666666666667,-11
815_swingley_aslin_2002_14,97,vaby,14,485,vaby,distractor,34,61,0.35789473684210527,NA,1,1,NA,590,2,466.6666666666667,466.6666666666667,933.3333333333334,-11
815_swingley_aslin_2002_14,101,gall,14,485,gall,distractor,0,106,0,NA,NA,0,NA,NA,0,NA,NA,NA,-11
815_swingley_aslin_2002_14,103,vaby,14,485,vaby,distractor,1,104,0.009523809523809525,NA,NA,0,NA,NA,0,NA,NA,NA,-11
816_swingley_aslin_2002_15,95,gall,15,486,gall,distractor,51,51,0.5,NA,1,1,NA,440,2,850.0000000000001,850.0000000000001,1700.0000000000002,-10
816_swingley_aslin_2002_15,97,vaby,15,486,vaby,distractor,40,61,0.39603960396039606,NA,1,1,NA,1290,2,666.6666666666667,666.6666666666667,1333.3333333333335,-10
816_swingley_aslin_2002_15,99,tog,15,486,tog,distractor,54,47,0.5346534653465347,NA,1,1,NA,540,2,733.3333333333334,733.3333333333334,1466.6666666666667,-10
816_swingley_aslin_2002_15,101,gall,15,486,gall,distractor,46,54,0.46,NA,1,1,NA,640,2,650,650,1300,-10
816_swingley_aslin_2002_15,103,vaby,15,486,vaby,distractor,44,56,0.44,NA,2,1,NA,290,2,366.6666666666667,533.3333333333334,1066.6666666666667,-10
816_swingley_aslin_2002_15,118,opple,15,486,opple,distractor,50,50,0.5,NA,2,1,NA,190,2,416.66666666666674,616.6666666666667,1233.3333333333335,-10
817_swingley_aslin_2002_14,38,shawl,14,487,shawl,distractor,33,69,0.3235294117647059,NA,2,1,NA,540,3,275,316.6666666666667,633.3333333333334,-11
817_swingley_aslin_2002_14,40,shawl,14,487,shawl,distractor,12,91,0.11650485436893204,NA,1,1,NA,540,2,200,200,400,-11
817_swingley_aslin_2002_14,41,raby,14,487,raby,distractor,44,58,0.43137254901960786,NA,1,1,NA,1015,2,733.3333333333334,733.3333333333334,1466.6666666666667,-11
817_swingley_aslin_2002_14,42,kier,14,487,kier,distractor,52,44,0.5416666666666666,NA,2,1,NA,515,3,383.33333333333337,350,833.3333333333334,-11
817_swingley_aslin_2002_14,44,yitty,14,487,yitty,distractor,101,4,0.9619047619047619,NA,1,1,NA,140,0,1683.3333333333335,1683.3333333333335,3366.666666666667,-11
818_swingley_aslin_2002_14,42,yitty,14,488,yitty,distractor,3,77,0.0375,NA,NA,1,NA,1115,0,NA,NA,NA,-11
818_swingley_aslin_2002_14,59,mog,14,488,mog,distractor,59,46,0.5619047619047619,NA,1,1,NA,740,2,983.3333333333334,983.3333333333334,1966.6666666666667,-11
818_swingley_aslin_2002_14,61,raby,14,488,raby,distractor,44,57,0.43564356435643564,NA,1,1,NA,115,1,583.3333333333334,583.3333333333334,1166.6666666666667,-11
1299_potter_remix_23,4,globo,23,969,balloon,distractor,68,20,0.7727272727272727,NA,1,1,NA,590,1,1133.3333333333335,1133.3333333333335,2266.666666666667,-2
1299_potter_remix_23,9,galleta,23,969,cookie,distractor,89,5,0.9468085106382979,NA,1,1,NA,215,0,1483.3333333333335,1483.3333333333335,2966.666666666667,-2
1299_potter_remix_23,10,leche,23,969,milk,distractor,77,7,0.9166666666666666,NA,1,1,NA,290,0,1283.3333333333335,1283.3333333333335,2566.666666666667,-2
1300_potter_remix_20,4,puerta,20,970,door,distractor,44,52,0.4583333333333333,NA,1,1,NA,1440,1,733.3333333333334,733.3333333333334,1466.6666666666667,-5
1300_potter_remix_20,9,perro,20,970,dog,distractor,42,56,0.42857142857142855,NA,1,0,NA,NA,1,700,700,1400,-5
1300_potter_remix_20,12,leche,20,970,milk,distractor,0,101,0,NA,NA,0,NA,NA,0,NA,NA,NA,-5
1301_potter_remix_22,3,mouth,22,971,mouth,distractor,0,84,0,NA,NA,0,NA,NA,0,NA,NA,NA,-3
1301_potter_remix_22,4,balloon,22,971,balloon,distractor,0,95,0,NA,NA,0,NA,NA,0,NA,NA,NA,-3
1301_potter_remix_22,7,foot,22,971,foot,distractor,25,72,0.25773195876288657,-0.679245283018868,1,0,NA,NA,1,416.6666666666667,416.6666666666667,833.3333333333334,-3
1301_potter_remix_22,16,kitty,22,971,kitty,distractor,0,97,0,-0.6792452830188679,NA,0,NA,NA,0,NA,NA,NA,-3
1302_potter_remix_28,4,door,28,972,door,distractor,0,104,0,NA,NA,0,NA,NA,0,NA,NA,NA,3
1302_potter_remix_28,5,balloon,28,972,balloon,distractor,92,7,0.9292929292929293,NA,1,1,NA,315,0,1533.3333333333335,1533.3333333333335,3066.666666666667,3
1302_potter_remix_28,6,foot,28,972,foot,distractor,35,63,0.35714285714285715,NA,1,1,NA,415,2,583.3333333333334,583.3333333333334,1166.6666666666667,3
1302_potter_remix_28,12,milk,28,972,milk,distractor,81,17,0.826530612244898,NA,1,1,NA,515,1,1350,1350,2700,3
1303_potter_remix_25,7,pie,25,973,foot,distractor,0,75,0,NA,NA,0,NA,NA,0,NA,NA,NA,0
1303_potter_remix_25,10,leche,25,973,milk,distractor,55,3,0.9482758620689655,NA,1,1,NA,140,0,916.6666666666667,916.6666666666667,1833.3333333333335,0
1303_potter_remix_25,16,gato,25,973,kitty,distractor,47,29,0.618421052631579,NA,1,1,NA,815,1,783.3333333333334,783.3333333333334,1566.6666666666667,0
1304_potter_remix_27,5,globo,27,974,balloon,distractor,45,36,0.5555555555555556,NA,1,1,NA,990,1,750,750,1500,2
1304_potter_remix_27,6,pie,27,974,foot,distractor,49,30,0.620253164556962,NA,1,1,NA,515,1,816.6666666666667,816.6666666666667,1633.3333333333335,2
1305_potter_remix_19,3,mouth,19,975,mouth,distractor,0,75,0,NA,NA,0,NA,NA,0,NA,NA,NA,-6
1306_potter_remix_29,6,door,29,976,door,distractor,85,20,0.8095238095238095,NA,1,1,NA,540,1,1416.6666666666667,1416.6666666666667,2833.3333333333335,4
1306_potter_remix_29,7,foot,29,976,foot,distractor,45,60,0.42857142857142855,NA,1,0,NA,NA,1,750,750,1500,4
1307_potter_remix_25,4,door,25,977,door,distractor,7,97,0.0673076923076923,NA,NA,0,NA,NA,0,NA,NA,NA,0
1307_potter_remix_25,6,foot,25,977,foot,distractor,11,63,0.14864864864864866,NA,NA,0,NA,NA,0,NA,NA,NA,0
1308_potter_remix_25,7,foot,25,978,foot,distractor,95,9,0.9134615384615384,-0.10377358490566035,1,1,NA,40,0,1583.3333333333335,1583.3333333333335,3166.666666666667,0
1308_potter_remix_25,16,kitty,25,978,kitty,distractor,0,106,0,-0.08490566037735849,NA,0,NA,NA,0,NA,NA,NA,0
1309_potter_remix_18,4,puerta,18,979,door,distractor,29,34,0.4603174603174603,NA,1,0,NA,NA,1,483.33333333333337,483.33333333333337,966.6666666666667,-7
1309_potter_remix_18,5,globo,18,979,balloon,distractor,0,73,0,NA,NA,0,NA,NA,0,NA,NA,NA,-7
1309_potter_remix_18,6,pie,18,979,foot,distractor,23,78,0.22772277227722773,NA,1,1,NA,540,2,383.33333333333337,383.33333333333337,766.6666666666667,-7
1310_potter_remix_21,3,mouth,21,980,mouth,distractor,38,16,0.7037037037037037,-0.4811320754716982,1,1,NA,1140,1,633.3333333333334,633.3333333333334,1266.6666666666667,-4
1310_potter_remix_21,4,balloon,21,980,balloon,distractor,50,33,0.6024096385542169,NA,1,1,NA,1090,1,833.3333333333334,833.3333333333334,1666.6666666666667,-4
1310_potter_remix_21,10,milk,21,980,milk,distractor,0,89,0,-0.1509433962264151,NA,0,NA,NA,0,NA,NA,NA,-4
1311_potter_remix_23,2,mouth,23,981,mouth,distractor,51,25,0.6710526315789473,0.11320754716981135,2,1,NA,315,2,425,550,1100,-2
1311_potter_remix_23,4,door,23,981,door,distractor,19,56,0.25333333333333335,NA,1,0,NA,NA,1,316.6666666666667,316.6666666666667,633.3333333333334,-2
1311_potter_remix_23,5,balloon,23,981,balloon,distractor,63,33,0.65625,NA,1,1,NA,515,2,1050,1050,2100,-2
1311_potter_remix_23,12,milk,23,981,milk,distractor,51,39,0.5666666666666667,0.24528301886792453,1,1,NA,640,2,850.0000000000001,850.0000000000001,1700.0000000000002,-2
1312_potter_remix_28,6,puerta,28,982,door,distractor,76,13,0.8539325842696629,NA,1,1,NA,440,1,1266.6666666666667,1266.6666666666667,2533.3333333333335,3
1312_potter_remix_28,9,galleta,28,982,cookie,distractor,0,55,0,NA,NA,0,NA,NA,0,NA,NA,NA,3
1313_potter_remix_21,2,boca,21,983,mouth,distractor,35,44,0.4430379746835443,NA,1,1,NA,1215,1,583.3333333333334,583.3333333333334,1166.6666666666667,-4
1313_potter_remix_21,12,leche,21,983,milk,distractor,65,25,0.7222222222222222,NA,1,1,NA,715,1,1083.3333333333335,1083.3333333333335,2166.666666666667,-4
1313_potter_remix_21,16,galleta,21,983,cookie,distractor,40,17,0.7017543859649122,NA,1,1,NA,515,1,666.6666666666667,666.6666666666667,1333.3333333333335,-4
1314_potter_remix_26,4,door,26,984,door,distractor,41,63,0.3942307692307692,NA,1,0,NA,NA,1,683.3333333333334,683.3333333333334,1366.6666666666667,1
1315_potter_remix_19,3,globo,19,985,balloon,distractor,78,27,0.7428571428571429,NA,1,1,NA,715,1,1300,1300,2600,-6
1315_potter_remix_19,5,puerta,19,985,door,distractor,39,61,0.39,NA,1,0,NA,NA,1,650,650,1300,-6
1315_potter_remix_19,9,leche,19,985,milk,distractor,70,33,0.6796116504854369,NA,1,1,NA,915,1,1166.6666666666667,1166.6666666666667,2333.3333333333335,-6
1315_potter_remix_19,13,perro,19,985,dog,distractor,10,93,0.0970873786407767,NA,NA,1,NA,1040,0,NA,NA,NA,-6
1316_potter_remix_18,4,balloon,18,986,balloon,distractor,58,40,0.5918367346938775,NA,1,1,NA,1090,1,966.6666666666667,966.6666666666667,1933.3333333333335,-7
1316_potter_remix_18,6,door,18,986,door,distractor,59,29,0.6704545454545454,-0.3867924528301887,1,1,NA,815,1,983.3333333333334,983.3333333333334,1966.6666666666667,-7
1316_potter_remix_18,9,cookie,18,986,cookie,distractor,0,100,0,-0.27358490566037735,NA,0,NA,NA,0,NA,NA,NA,-7
1316_potter_remix_18,16,kitty,18,986,kitty,distractor,91,11,0.8921568627450981,NA,1,1,NA,390,0,1516.6666666666667,1516.6666666666667,3033.3333333333335,-7
1317_potter_remix_20,6,foot,20,987,foot,distractor,55,35,0.6111111111111112,NA,1,1,NA,1015,1,916.6666666666667,916.6666666666667,1833.3333333333335,-5
1318_potter_remix_19,2,boca,19,988,mouth,distractor,35,43,0.44871794871794873,NA,1,1,NA,1140,1,583.3333333333334,583.3333333333334,1166.6666666666667,-6
1318_potter_remix_19,4,puerta,19,988,door,distractor,48,39,0.5517241379310345,NA,1,1,NA,615,2,800,800,1600,-6
1318_potter_remix_19,5,globo,19,988,balloon,distractor,40,55,0.42105263157894735,NA,1,0,NA,NA,1,666.6666666666667,666.6666666666667,1333.3333333333335,-6
1318_potter_remix_19,6,pie,19,988,foot,distractor,52,16,0.7647058823529411,NA,1,1,NA,1215,1,866.6666666666667,866.6666666666667,1733.3333333333335,-6
1318_potter_remix_19,15,gato,19,988,kitty,distractor,48,39,0.5517241379310345,NA,1,1,NA,490,2,800,800,1600,-6
1319_potter_remix_20,16,kitty,20,989,kitty,distractor,51,51,0.5,NA,1,1,NA,1390,1,850.0000000000001,850.0000000000001,1700.0000000000002,-5
1320_potter_remix_18,2,mouth,18,990,mouth,distractor,0,95,0,NA,NA,0,NA,NA,0,NA,NA,NA,-7
1320_potter_remix_18,4,door,18,990,door,distractor,0,81,0,-0.3113207547169811,NA,0,NA,NA,0,NA,NA,NA,-7
1320_potter_remix_18,5,balloon,18,990,balloon,distractor,44,43,0.5057471264367817,NA,1,1,NA,1190,1,733.3333333333334,733.3333333333334,1466.6666666666667,-7
1320_potter_remix_18,6,foot,18,990,foot,distractor,0,91,0,NA,NA,0,NA,NA,0,NA,NA,NA,-7
1320_potter_remix_18,16,cookie,18,990,cookie,distractor,28,33,0.45901639344262296,-0.5,1,1,NA,940,1,466.6666666666667,466.6666666666667,933.3333333333334,-7
1321_potter_remix_26,2,mouth,26,991,mouth,distractor,60,33,0.6451612903225806,NA,1,1,NA,315,1,1000.0000000000001,1000.0000000000001,2000.0000000000002,1
1321_potter_remix_26,4,door,26,991,door,distractor,68,32,0.68,NA,1,1,NA,915,1,1133.3333333333335,1133.3333333333335,2266.666666666667,1
1322_potter_remix_23,2,mouth,23,992,mouth,distractor,38,53,0.4175824175824176,NA,1,1,NA,715,2,483.33333333333337,483.33333333333337,966.6666666666667,-2
1322_potter_remix_23,4,door,23,992,door,distractor,39,59,0.3979591836734694,NA,1,1,NA,215,1,650,650,1300,-2
1322_potter_remix_23,5,balloon,23,992,balloon,distractor,75,19,0.7978723404255319,NA,1,1,NA,215,1,1250,1250,2500,-2
1322_potter_remix_23,15,kitty,23,992,kitty,distractor,80,9,0.898876404494382,NA,1,1,NA,315,0,1333.3333333333335,1333.3333333333335,2666.666666666667,-2
1323_potter_remix_20,6,door,20,993,door,distractor,30,60,0.3333333333333333,NA,1,0,NA,NA,1,500.00000000000006,500.00000000000006,1000.0000000000001,-5
1323_potter_remix_20,7,foot,20,993,foot,distractor,71,17,0.8068181818181818,0.40566037735849053,1,1,NA,540,1,1183.3333333333335,1183.3333333333335,2366.666666666667,-5
1323_potter_remix_20,16,kitty,20,993,kitty,distractor,74,28,0.7254901960784313,0.5377358490566038,1,1,NA,815,1,1233.3333333333335,1233.3333333333335,2466.666666666667,-5
1324_potter_remix_22,2,boca,22,994,mouth,distractor,0,83,0,NA,NA,0,NA,NA,0,NA,NA,NA,-3
1324_potter_remix_22,5,globo,22,994,balloon,distractor,59,16,0.7866666666666666,NA,1,1,NA,515,1,983.3333333333334,983.3333333333334,1966.6666666666667,-3
1325_potter_remix_28,3,boca,28,995,mouth,distractor,29,36,0.4461538461538462,NA,1,1,NA,415,1,483.33333333333337,483.33333333333337,966.6666666666667,3
1325_potter_remix_28,9,galleta,28,995,cookie,distractor,0,89,0,NA,NA,0,NA,NA,0,NA,NA,NA,3
1325_potter_remix_28,10,leche,28,995,milk,distractor,64,24,0.7272727272727273,NA,1,1,NA,715,1,1066.6666666666667,1066.6666666666667,2133.3333333333335,3
1326_potter_remix_25,2,mouth,25,996,mouth,distractor,63,32,0.6631578947368421,NA,1,1,NA,940,1,1050,1050,2100,0
1326_potter_remix_25,5,balloon,25,996,balloon,distractor,55,24,0.6962025316455697,NA,1,1,NA,715,1,916.6666666666667,916.6666666666667,1833.3333333333335,0
1326_potter_remix_25,16,cookie,25,996,cookie,distractor,12,46,0.20689655172413793,NA,1,1,NA,1040,1,200,200,400,0
1327_potter_remix_27,6,door,27,997,door,distractor,84,9,0.9032258064516129,NA,1,1,NA,315,0,1400,1400,2800,2
1327_potter_remix_27,7,foot,27,997,foot,distractor,0,95,0,NA,NA,0,NA,NA,0,NA,NA,NA,2
1328_potter_remix_19,4,globo,19,998,balloon,distractor,41,45,0.47674418604651164,NA,1,1,NA,1290,1,683.3333333333334,683.3333333333334,1366.6666666666667,-6
1329_potter_remix_29,4,puerta,29,999,door,distractor,94,8,0.9215686274509803,NA,1,1,NA,190,0,1566.6666666666667,1566.6666666666667,3133.3333333333335,4
1329_potter_remix_29,12,leche,29,999,milk,distractor,85,20,0.8095238095238095,NA,1,1,NA,540,1,1416.6666666666667,1416.6666666666667,2833.3333333333335,4
1330_potter_remix_25,6,puerta,25,1000,door,distractor,28,71,0.2828282828282828,NA,1,1,NA,1040,2,466.6666666666667,466.6666666666667,933.3333333333334,0
1330_potter_remix_25,7,pie,25,1000,foot,distractor,73,29,0.7156862745098039,NA,1,1,NA,790,1,1216.6666666666667,1216.6666666666667,2433.3333333333335,0
1330_potter_remix_25,14,perro,25,1000,dog,distractor,64,33,0.6597938144329897,NA,1,1,NA,1040,1,1066.6666666666667,1066.6666666666667,2133.3333333333335,0
1330_potter_remix_25,16,gato,25,1000,kitty,distractor,0,106,0,NA,NA,0,NA,NA,0,NA,NA,NA,0
1331_potter_remix_25,4,puerta,25,1001,door,distractor,0,97,0,NA,NA,0,NA,NA,0,NA,NA,NA,0
1331_potter_remix_25,5,globo,25,1001,balloon,distractor,44,47,0.4835164835164835,NA,2,1,NA,690,3,366.6666666666667,400,800,0
1333_potter_remix_23,4,globo,23,1003,balloon,distractor,40,42,0.4878048780487805,NA,1,1,NA,315,1,666.6666666666667,666.6666666666667,1333.3333333333335,-2
1333_potter_remix_23,7,pie,23,1003,foot,distractor,77,4,0.9506172839506173,NA,1,1,NA,215,0,1283.3333333333335,1283.3333333333335,2566.666666666667,-2
1333_potter_remix_23,10,leche,23,1003,milk,distractor,84,5,0.9438202247191011,NA,1,1,NA,215,0,1400,1400,2800,-2
1333_potter_remix_23,14,perro,23,1003,dog,distractor,77,7,0.9166666666666666,NA,1,1,NA,290,0,1283.3333333333335,1283.3333333333335,2566.666666666667,-2
1334_potter_remix_21,3,mouth,21,1004,mouth,distractor,0,73,0,NA,NA,0,NA,NA,0,NA,NA,NA,-4
1334_potter_remix_21,4,balloon,21,1004,balloon,distractor,62,27,0.6966292134831461,NA,1,1,NA,390,1,1033.3333333333335,1033.3333333333335,2066.666666666667,-4
1334_potter_remix_21,6,door,21,1004,door,distractor,33,61,0.35106382978723405,NA,1,0,NA,NA,1,550,550,1100,-4
1335_potter_remix_26,9,galleta,26,1005,cookie,distractor,34,41,0.4533333333333333,NA,1,1,NA,590,2,566.6666666666667,566.6666666666667,1133.3333333333335,1
1336_potter_remix_19,3,door,19,1006,door,distractor,9,91,0.09,-0.8584905660377359,NA,0,NA,NA,0,NA,NA,NA,-6
1336_potter_remix_19,11,milk,19,1006,milk,distractor,0,106,0,NA,NA,0,NA,NA,0,NA,NA,NA,-6
1336_potter_remix_19,15,cookie,19,1006,cookie,distractor,5,100,0.047619047619047616,-0.8113207547169812,NA,0,NA,NA,0,NA,NA,NA,-6
1337_potter_remix_18,2,boca,18,1007,mouth,distractor,1,65,0.015151515151515152,NA,NA,0,NA,NA,0,NA,NA,NA,-7
1337_potter_remix_18,6,pie,18,1007,foot,distractor,59,9,0.8676470588235294,NA,1,1,NA,340,0,983.3333333333334,983.3333333333334,1966.6666666666667,-7
1337_potter_remix_18,9,perro,18,1007,dog,distractor,14,76,0.15555555555555556,NA,1,0,NA,NA,1,233.33333333333334,233.33333333333334,466.6666666666667,-7
1337_potter_remix_18,15,gato,18,1007,kitty,distractor,0,77,0,NA,NA,0,NA,NA,0,NA,NA,NA,-7
1338_potter_remix_20,16,gato,20,1008,kitty,distractor,16,41,0.2807017543859649,NA,1,1,NA,1140,1,266.6666666666667,266.6666666666667,533.3333333333334,-5
1339_potter_remix_19,6,door,19,1009,door,distractor,80,15,0.8421052631578947,NA,1,1,NA,440,1,1333.3333333333335,1333.3333333333335,2666.666666666667,-6
1341_potter_remix_18,4,globo,18,1011,balloon,distractor,52,32,0.6190476190476191,NA,1,1,NA,1040,1,866.6666666666667,866.6666666666667,1733.3333333333335,-7
1341_potter_remix_18,6,puerta,18,1011,door,distractor,28,57,0.32941176470588235,NA,1,0,NA,NA,1,466.6666666666667,466.6666666666667,933.3333333333334,-7
1341_potter_remix_18,9,galleta,18,1011,cookie,distractor,56,36,0.6086956521739131,NA,1,1,NA,1015,1,933.3333333333334,933.3333333333334,1866.6666666666667,-7
1341_potter_remix_18,10,leche,18,1011,milk,distractor,65,15,0.8125,NA,1,1,NA,490,1,1083.3333333333335,1083.3333333333335,2166.666666666667,-7
1803_garrison_bergelson_2020_17,2,elephant,17,1413,elephant,distractor,11,76,0.12643678160919541,-0.2993677763508841,NA,1,NA,1390,0,NA,NA,NA,-8
1803_garrison_bergelson_2020_17,8,shoe,17,1413,shoe,distractor,98,8,0.9245283018867925,0.3113207547169812,1,1,NA,215,0,1633.3333333333335,1633.3333333333335,196,-8
1803_garrison_bergelson_2020_17,15,book,17,1413,book,distractor,87,19,0.8207547169811321,-0.12012249333201619,1,1,NA,490,1,1450,1450,174,-8
1803_garrison_bergelson_2020_17,19,highchair,17,1413,highchair,distractor,48,58,0.4528301886792453,NA,1,1,NA,115,1,800,800,96,-8
1803_garrison_bergelson_2020_17,23,book,17,1413,book,distractor,27,58,0.3176470588235294,-0.12012249333201619,1,0,NA,NA,1,450.00000000000006,450.00000000000006,54,-8
1803_garrison_bergelson_2020_17,28,kitty,17,1413,kitty,distractor,57,49,0.5377358490566038,NA,1,1,NA,165,1,950.0000000000001,950.0000000000001,114,-8
1803_garrison_bergelson_2020_17,30,baba,17,1413,baba,distractor,41,65,0.3867924528301887,0.3113207547169812,2,1,NA,965,3,341.6666666666667,466.6666666666667,56,-8
1804_garrison_bergelson_2020_16,2,water,16,1414,water,distractor,62,44,0.5849056603773585,0.41509433962264153,1,1,NA,115,1,1033.3333333333335,1033.3333333333335,124,-9
1804_garrison_bergelson_2020_16,5,blocks,16,1414,blocks,distractor,40,66,0.37735849056603776,NA,2,1,NA,840,3,333.33333333333337,316.6666666666667,42,-9
1804_garrison_bergelson_2020_16,10,dog,16,1414,dog,distractor,73,33,0.6886792452830188,-0.03301886792452824,1,1,NA,415,2,1216.6666666666667,1216.6666666666667,146,-9
1804_garrison_bergelson_2020_16,11,sock,16,1414,sock,distractor,88,18,0.8301886792452831,0.41509433962264153,1,1,NA,465,1,1466.6666666666667,1466.6666666666667,176,-9
1804_garrison_bergelson_2020_16,23,blocks,16,1414,blocks,distractor,96,10,0.9056603773584906,NA,1,1,NA,265,0,1600,1600,192,-9
1804_garrison_bergelson_2020_16,26,dog,16,1414,dog,distractor,72,34,0.6792452830188679,-0.03301886792452824,1,1,NA,540,2,1200,1200,144,-9
1804_garrison_bergelson_2020_16,32,monkey,16,1414,monkey,distractor,30,76,0.2830188679245283,-0.033018867924528295,1,1,NA,390,2,500.00000000000006,500.00000000000006,60,-9
1805_garrison_bergelson_2020_15,1,ball,15,1415,ball,distractor,53,53,0.5,0.15094339622641512,1,1,NA,640,2,833.3333333333334,833.3333333333334,100,-10
1805_garrison_bergelson_2020_15,4,highchair,15,1415,highchair,distractor,50,56,0.4716981132075472,0.15094339622641506,1,1,NA,515,2,833.3333333333334,833.3333333333334,100,-10
1805_garrison_bergelson_2020_15,6,kittycat,15,1415,kittycat,distractor,48,58,0.4528301886792453,0.3867924528301887,1,1,NA,215,1,633.3333333333334,633.3333333333334,76,-10
1805_garrison_bergelson_2020_15,8,book,15,1415,book,distractor,66,40,0.6226415094339622,NA,1,1,NA,265,1,1100,1100,132,-10
1805_garrison_bergelson_2020_15,13,dog,15,1415,dog,distractor,99,7,0.9339622641509434,0.3867924528301887,1,1,NA,190,0,1650.0000000000002,1650.0000000000002,198,-10
1805_garrison_bergelson_2020_15,15,truck,15,1415,truck,distractor,94,12,0.8867924528301887,NA,1,1,NA,315,1,1566.6666666666667,1566.6666666666667,188,-10
1805_garrison_bergelson_2020_15,21,highchair,15,1415,highchair,distractor,88,18,0.8301886792452831,0.15094339622641506,1,1,NA,465,1,1466.6666666666667,1466.6666666666667,176,-10
1806_garrison_bergelson_2020_15,2,highchair,15,1416,highchair,distractor,92,14,0.8679245283018868,0.14150943396226418,1,1,NA,365,1,1533.3333333333335,1533.3333333333335,184,-10
1806_garrison_bergelson_2020_15,5,cow,15,1416,cow,distractor,60,46,0.5660377358490566,NA,1,1,NA,240,1,1000.0000000000001,1000.0000000000001,120,-10
1806_garrison_bergelson_2020_15,13,highchair,15,1416,highchair,distractor,16,90,0.1509433962264151,0.14150943396226418,1,0,NA,NA,2,266.6666666666667,266.6666666666667,32,-10
1806_garrison_bergelson_2020_15,20,stroller,15,1416,stroller,distractor,0,106,0,NA,NA,0,NA,NA,0,NA,NA,NA,-10
1806_garrison_bergelson_2020_15,22,shoe,15,1416,shoe,distractor,67,39,0.6320754716981132,0.14150943396226412,1,1,NA,990,1,1116.6666666666667,1116.6666666666667,134,-10
1806_garrison_bergelson_2020_15,23,cow,15,1416,cow,distractor,0,101,0,NA,NA,0,NA,NA,0,NA,NA,NA,-10
1806_garrison_bergelson_2020_15,28,spoon,15,1416,spoon,distractor,0,106,0,NA,NA,0,NA,NA,0,NA,NA,NA,-10
1806_garrison_bergelson_2020_15,32,spoon,15,1416,spoon,distractor,0,106,0,NA,NA,0,NA,NA,0,NA,NA,NA,-10
1807_garrison_bergelson_2020_17,8,tiger,17,1417,tiger,distractor,87,19,0.8207547169811321,0.7670634418133468,1,1,NA,215,0,1450,1450,174,-8
1807_garrison_bergelson_2020_17,11,owl,17,1417,owl,distractor,52,54,0.49056603773584906,0.4528301886792453,1,1,NA,1365,1,866.6666666666667,866.6666666666667,104,-8
1807_garrison_bergelson_2020_17,13,horse,17,1417,horse,distractor,102,4,0.9622641509433962,0.4528301886792453,1,1,NA,115,0,1700.0000000000002,1700.0000000000002,204,-8
1807_garrison_bergelson_2020_17,15,monkey,17,1417,monkey,distractor,38,5,0.8837209302325582,0.7670634418133468,1,1,NA,140,0,633.3333333333334,633.3333333333334,76,-8
1807_garrison_bergelson_2020_17,26,whale,17,1417,whale,distractor,0,106,0,NA,NA,0,NA,NA,0,NA,NA,NA,-8
1807_garrison_bergelson_2020_17,30,monkey,17,1417,monkey,distractor,103,3,0.9716981132075472,0.7670634418133468,1,1,NA,90,0,1716.6666666666667,1716.6666666666667,206,-8
1808_garrison_bergelson_2020_17,8,water,17,1418,water,distractor,38,68,0.3584905660377358,NA,1,0,NA,NA,1,633.3333333333334,633.3333333333334,76,-8
1808_garrison_bergelson_2020_17,10,sunglasses,17,1418,sunglasses,distractor,32,74,0.3018867924528302,0.1792452830188679,1,1,NA,365,2,533.3333333333334,533.3333333333334,64,-8
1808_garrison_bergelson_2020_17,11,stroller,17,1418,stroller,distractor,49,57,0.46226415094339623,NA,1,1,NA,115,1,733.3333333333334,733.3333333333334,88,-8
1808_garrison_bergelson_2020_17,17,baby,17,1418,baby,distractor,89,17,0.839622641509434,NA,1,1,NA,440,1,1483.3333333333335,1483.3333333333335,178,-8
1808_garrison_bergelson_2020_17,20,water,17,1418,water,distractor,43,28,0.6056338028169014,NA,1,1,NA,715,1,716.6666666666667,716.6666666666667,86,-8
1808_garrison_bergelson_2020_17,28,keys,17,1418,keys,distractor,93,13,0.8773584905660378,0.179245283018868,1,1,NA,340,1,1550,1550,186,-8
1811_garrison_bergelson_2020_14,1,bottle,14,1421,bottle,distractor,60,46,0.5660377358490566,NA,2,1,NA,490,3,500,416.6666666666667,70,-11
1811_garrison_bergelson_2020_14,3,blocks,14,1421,blocks,distractor,37,38,0.49333333333333335,NA,1,1,NA,365,2,616.6666666666667,616.6666666666667,74,-11
1811_garrison_bergelson_2020_14,7,monkey,14,1421,monkey,distractor,71,35,0.6698113207547169,NA,1,1,NA,540,2,1183.3333333333335,1183.3333333333335,142,-11
1811_garrison_bergelson_2020_14,12,elephant,14,1421,elephant,distractor,39,26,0.6,0,1,1,NA,1115,1,650,650,78,-11
1811_garrison_bergelson_2020_14,16,monkey,14,1421,monkey,distractor,18,78,0.1875,NA,NA,1,NA,940,0,NA,NA,NA,-11
1811_garrison_bergelson_2020_14,18,kitty,14,1421,kitty,distractor,68,33,0.6732673267326733,0.17924528301886788,1,1,NA,515,2,1133.3333333333335,1133.3333333333335,136,-11
1811_garrison_bergelson_2020_14,25,elephant,14,1421,elephant,distractor,27,72,0.2727272727272727,0,1,0,NA,NA,1,450.00000000000006,450.00000000000006,54,-11
1812_garrison_bergelson_2020_17,2,ball,17,1422,ball,distractor,28,78,0.2641509433962264,-0.1367924528301887,1,1,NA,290,1,466.6666666666667,466.6666666666667,56,-8
1812_garrison_bergelson_2020_17,5,car,17,1422,car,distractor,62,10,0.8611111111111112,NA,1,1,NA,265,0,1033.3333333333335,1033.3333333333335,124,-8
1812_garrison_bergelson_2020_17,11,cup,17,1422,cup,distractor,40,66,0.37735849056603776,-0.1367924528301887,1,1,NA,740,2,666.6666666666667,666.6666666666667,80,-8
1812_garrison_bergelson_2020_17,13,ball,17,1422,ball,distractor,88,18,0.8301886792452831,-0.1367924528301887,2,1,NA,65,2,733.3333333333334,800,96,-8
1812_garrison_bergelson_2020_17,15,tablet,17,1422,tablet,distractor,81,25,0.7641509433962265,0.679245283018868,1,1,NA,640,1,1350,1350,162,-8
1812_garrison_bergelson_2020_17,20,shoe,17,1422,shoe,distractor,97,9,0.9150943396226415,0.679245283018868,1,1,NA,240,0,1616.6666666666667,1616.6666666666667,194,-8
1812_garrison_bergelson_2020_17,22,cup,17,1422,cup,distractor,27,79,0.25471698113207547,-0.1367924528301887,1,1,NA,940,2,450.00000000000006,450.00000000000006,54,-8
1812_garrison_bergelson_2020_17,26,book,17,1422,book,distractor,30,76,0.2830188679245283,NA,1,1,NA,440,2,500.00000000000006,500.00000000000006,60,-8
1813_garrison_bergelson_2020_12,4,diaper,12,1423,diaper,distractor,45,35,0.5625,NA,2,1,NA,265,2,375,433.33333333333337,52,-13
1813_garrison_bergelson_2020_12,11,doll,12,1423,doll,distractor,42,64,0.39622641509433965,NA,1,1,NA,465,2,700,700,84,-13
1813_garrison_bergelson_2020_12,15,table,12,1423,table,distractor,4,37,0.0975609756097561,NA,NA,1,NA,940,0,NA,NA,NA,-13
1813_garrison_bergelson_2020_12,23,table,12,1423,table,distractor,57,49,0.5377358490566038,NA,1,1,NA,215,1,800,800,96,-13
1813_garrison_bergelson_2020_12,30,doll,12,1423,doll,distractor,0,106,0,NA,NA,0,NA,NA,0,NA,NA,NA,-13
1814_garrison_bergelson_2020_12,1,ball,12,1424,ball,distractor,93,13,0.8773584905660378,0.5754716981132075,1,1,NA,40,1,1550,1550,186,-13
1814_garrison_bergelson_2020_12,4,sippycup,12,1424,sippycup,distractor,74,32,0.6981132075471698,0.5754716981132075,1,1,NA,340,2,1233.3333333333335,1233.3333333333335,148,-13
1814_garrison_bergelson_2020_12,8,book,12,1424,book,distractor,75,31,0.7075471698113207,NA,1,1,NA,315,2,1250,1250,150,-13
1814_garrison_bergelson_2020_12,13,brush,12,1424,brush,distractor,49,36,0.5764705882352941,NA,1,1,NA,465,2,816.6666666666667,816.6666666666667,98,-13
1815_garrison_bergelson_2020_14,5,bear,14,1425,bear,distractor,55,51,0.5188679245283019,NA,1,1,NA,165,1,916.6666666666667,916.6666666666667,110,-11
1815_garrison_bergelson_2020_14,10,cup,14,1425,cup,distractor,40,50,0.4444444444444444,0.10377358490566041,1,1,NA,765,2,666.6666666666667,666.6666666666667,80,-11
1815_garrison_bergelson_2020_14,15,ball,14,1425,ball,distractor,52,54,0.49056603773584906,NA,1,1,NA,240,1,866.6666666666667,866.6666666666667,104,-11
1815_garrison_bergelson_2020_14,22,bathtub,14,1425,bathtub,distractor,0,106,0,NA,NA,0,NA,NA,0,NA,NA,NA,-11
1815_garrison_bergelson_2020_14,28,piano,14,1425,piano,distractor,77,29,0.7264150943396226,0.2547169811320754,1,1,NA,390,2,1283.3333333333335,1283.3333333333335,154,-11
1815_garrison_bergelson_2020_14,30,ball,14,1425,ball,distractor,63,5,0.9264705882352942,NA,1,1,NA,140,0,1050,1050,126,-11
1819_garrison_bergelson_2020_13,1,spoon,13,1429,spoon,distractor,0,106,0,NA,NA,0,NA,NA,0,NA,NA,NA,-12
1819_garrison_bergelson_2020_13,8,chair,13,1429,chair,distractor,0,106,0,NA,NA,0,NA,NA,0,NA,NA,NA,-12
1819_garrison_bergelson_2020_13,11,door,13,1429,door,distractor,0,106,0,NA,NA,0,NA,NA,0,NA,NA,NA,-12
1819_garrison_bergelson_2020_13,17,spoon,13,1429,spoon,distractor,0,106,0,NA,NA,0,NA,NA,0,NA,NA,NA,-12
1819_garrison_bergelson_2020_13,22,door,13,1429,door,distractor,0,103,0,NA,NA,0,NA,NA,0,NA,NA,NA,-12
1819_garrison_bergelson_2020_13,32,car,13,1429,car,distractor,0,43,0,NA,NA,0,NA,NA,0,NA,NA,NA,-12
1820_garrison_bergelson_2020_15,2,socks,15,1430,socks,distractor,82,24,0.7735849056603774,0.5613207547169812,2,1,NA,40,2,683.3333333333334,600,92,-10
1820_garrison_bergelson_2020_15,4,doggy,15,1430,doggy,distractor,78,28,0.7358490566037735,NA,1,1,NA,290,1,1300,1300,156,-10
1820_garrison_bergelson_2020_15,6,diapey,15,1430,diapey,distractor,85,21,0.8018867924528302,NA,2,1,NA,90,2,708.3333333333334,933.3333333333334,112,-10
1820_garrison_bergelson_2020_15,15,ball,15,1430,ball,distractor,105,1,0.9905660377358491,0.5518867924528301,1,1,NA,40,0,1750.0000000000002,1750.0000000000002,210,-10
1820_garrison_bergelson_2020_15,19,diapey,15,1430,diapey,distractor,82,24,0.7735849056603774,NA,2,1,NA,240,2,683.3333333333334,600,92,-10
1820_garrison_bergelson_2020_15,21,doggy,15,1430,doggy,distractor,88,18,0.8301886792452831,NA,2,1,NA,115,2,733.3333333333335,900.0000000000001,108,-10
1820_garrison_bergelson_2020_15,23,ball,15,1430,ball,distractor,60,44,0.5769230769230769,0.5518867924528301,1,1,NA,665,2,1000.0000000000001,1000.0000000000001,120,-10
1820_garrison_bergelson_2020_15,30,car,15,1430,car,distractor,103,3,0.9716981132075472,NA,1,1,NA,90,0,1716.6666666666667,1716.6666666666667,206,-10
1821_garrison_bergelson_2020_12,1,tambourine,12,1431,tambourine,distractor,48,58,0.4528301886792453,NA,1,1,NA,1115,2,800,800,96,-13
1821_garrison_bergelson_2020_12,8,paci,12,1431,paci,distractor,0,106,0,NA,NA,0,NA,NA,0,NA,NA,NA,-13
1821_garrison_bergelson_2020_12,10,maraca,12,1431,maraca,distractor,44,62,0.41509433962264153,0.1509433962264151,1,1,NA,565,2,733.3333333333334,733.3333333333334,88,-13
1821_garrison_bergelson_2020_12,13,drum,12,1431,drum,distractor,74,32,0.6981132075471698,NA,1,1,NA,415,2,1233.3333333333335,1233.3333333333335,148,-13
1821_garrison_bergelson_2020_12,17,tambourine,12,1431,tambourine,distractor,30,76,0.2830188679245283,NA,1,0,NA,NA,1,500.00000000000006,500.00000000000006,60,-13
1821_garrison_bergelson_2020_12,20,paci,12,1431,paci,distractor,0,106,0,NA,NA,0,NA,NA,0,NA,NA,NA,-13
1821_garrison_bergelson_2020_12,26,maraca,12,1431,maraca,distractor,19,66,0.2235294117647059,0.1509433962264151,1,1,NA,415,2,316.6666666666667,316.6666666666667,38,-13
1821_garrison_bergelson_2020_12,28,shoes,12,1431,shoes,distractor,97,9,0.9150943396226415,0.25,1,1,NA,240,0,1616.6666666666667,1616.6666666666667,194,-13
1821_garrison_bergelson_2020_12,32,shoes,12,1431,shoes,distractor,84,22,0.7924528301886793,0.25,1,1,NA,565,1,1400,1400,168,-13
1822_garrison_bergelson_2020_13,1,brush,13,1432,brush,distractor,0,106,0,NA,NA,0,NA,NA,0,NA,NA,NA,-12
1822_garrison_bergelson_2020_13,6,blanket,13,1432,blanket,distractor,17,89,0.16037735849056603,-0.1792452830188679,1,0,NA,NA,1,283.33333333333337,283.33333333333337,34,-12
1822_garrison_bergelson_2020_13,8,monkey,13,1432,monkey,distractor,34,72,0.32075471698113206,NA,1,1,NA,590,2,566.6666666666667,566.6666666666667,68,-12
1822_garrison_bergelson_2020_13,13,bottle,13,1432,bottle,distractor,48,58,0.4528301886792453,-0.179245283018868,1,1,NA,715,2,800,800,96,-12
1822_garrison_bergelson_2020_13,16,monkey,13,1432,monkey,distractor,0,106,0,NA,NA,0,NA,NA,0,NA,NA,NA,-12
1822_garrison_bergelson_2020_13,24,bottle,13,1432,bottle,distractor,92,14,0.8679245283018868,-0.179245283018868,1,1,NA,365,1,1533.3333333333335,1533.3333333333335,184,-12
1822_garrison_bergelson_2020_13,26,brush,13,1432,brush,distractor,0,106,0,NA,NA,0,NA,NA,0,NA,NA,NA,-12
1823_garrison_bergelson_2020_14,5,balloon,14,1433,balloon,distractor,25,74,0.25252525252525254,NA,1,0,NA,NA,1,416.6666666666667,416.6666666666667,50,-11
1823_garrison_bergelson_2020_14,8,book,14,1433,book,distractor,35,71,0.330188679245283,NA,1,1,NA,65,1,583.3333333333334,583.3333333333334,70,-11
1823_garrison_bergelson_2020_14,11,waterbottle,14,1433,waterbottle,distractor,52,50,0.5098039215686274,NA,1,1,NA,490,1,533.3333333333334,533.3333333333334,64,-11
1823_garrison_bergelson_2020_14,23,balloon,14,1433,balloon,distractor,13,93,0.12264150943396226,NA,1,0,NA,NA,1,216.66666666666669,216.66666666666669,26,-11
1823_garrison_bergelson_2020_14,28,fan,14,1433,fan,distractor,4,33,0.10810810810810811,NA,NA,1,NA,840,0,NA,NA,NA,-11
1824_garrison_bergelson_2020_15,1,ball,15,1434,ball,distractor,104,2,0.9811320754716981,0.9198113207547169,1,1,NA,65,0,1733.3333333333335,1733.3333333333335,208,-10
1824_garrison_bergelson_2020_15,4,car,15,1434,car,distractor,98,8,0.9245283018867925,0.8962264150943396,1,1,NA,215,0,1633.3333333333335,1633.3333333333335,196,-10
1824_garrison_bergelson_2020_15,6,book,15,1434,book,distractor,76,30,0.71698113207547165,0.5235849056603774,1,1,NA,515,1,1266.6666666666667,1266.6666666666667,152,-10
1824_garrison_bergelson_2020_15,11,diaper,15,1434,diaper,distractor,79,27,0.7452830188679245,NA,2,1,NA,140,2,658.3333333333334,350,116,-10
1824_garrison_bergelson_2020_15,13,paci,15,1434,paci,distractor,101,5,0.9528301886792453,0.5235849056603774,1,1,NA,140,0,1683.3333333333335,1683.3333333333335,202,-10
1824_garrison_bergelson_2020_15,15,milk,15,1434,milk,distractor,33,73,0.3113207547169811,NA,1,1,NA,390,2,550,550,66,-10
1824_garrison_bergelson_2020_15,19,book,15,1434,book,distractor,41,65,0.3867924528301887,0.5235849056603774,1,1,NA,790,2,683.3333333333334,683.3333333333334,82,-10
1824_garrison_bergelson_2020_15,21,car,15,1434,car,distractor,96,5,0.9504950495049505,0.8962264150943396,1,1,NA,140,0,1600,1600,192,-10
1824_garrison_bergelson_2020_15,23,milk,15,1434,milk,distractor,22,84,0.20754716981132076,NA,1,1,NA,415,2,216.66666666666669,216.66666666666669,26,-10
1824_garrison_bergelson_2020_15,26,paci,15,1434,paci,distractor,105,1,0.9905660377358491,0.5235849056603774,1,1,NA,40,0,1750.0000000000002,1750.0000000000002,210,-10
1825_garrison_bergelson_2020_12,2,sippycup,12,1435,sippycup,distractor,0,106,0,NA,NA,0,NA,NA,0,NA,NA,NA,-13
1825_garrison_bergelson_2020_12,13,sippycup,12,1435,sippycup,distractor,43,38,0.5308641975308642,NA,1,1,NA,165,1,716.6666666666667,716.6666666666667,86,-13
1825_garrison_bergelson_2020_12,15,ball,12,1435,ball,distractor,81,16,0.8350515463917526,NA,1,1,NA,640,1,1350,1350,162,-13
1825_garrison_bergelson_2020_12,23,shoe,12,1435,shoe,distractor,67,32,0.6767676767676768,NA,1,1,NA,815,1,1116.6666666666667,1116.6666666666667,134,-13
1825_garrison_bergelson_2020_12,27,ball,12,1435,ball,distractor,0,106,0,NA,NA,0,NA,NA,0,NA,NA,NA,-13
1826_garrison_bergelson_2020_12,1,book,12,1436,book,distractor,81,25,0.7641509433962265,-0.23584905660377353,1,1,NA,640,1,1350,1350,162,-13
1826_garrison_bergelson_2020_12,2,brush,12,1436,brush,distractor,18,88,0.16981132075471697,-0.0849056603773585,1,0,NA,NA,1,300,300,36,-13
