recording_name,trial_number,target_word,age_months,subject_id,media_name,initial_look,samples_target,samples_distractor,prop_looking,prop_looking_diff,number_fixations,correct_shift,remain_on_target,latency_to_switch,total_aoi_switches,duration_of_look,first_look_dur,longest_look_by_trial,age_months_centred
108_pomper_saffran_2016_46,2,red,46,108,red,target,87,17,0.8365384615384616,NA,1,NA,1,NA,1,1450,1450,2900,21
108_pomper_saffran_2016_46,3,yellow,46,108,yellow,target,106,0,1,NA,1,NA,1,NA,0,1766.6666666666667,1766.6666666666667,3533.3333333333335,21
108_pomper_saffran_2016_46,7,orange,46,108,orange,target,59,0,1,NA,1,NA,1,NA,0,983.3333333333334,983.3333333333334,1966.6666666666667,21
109_pomper_saffran_2016_43,10,blue,43,109,blue,target,86,14,0.86,NA,1,NA,0,NA,1,1433.3333333333335,1433.3333333333335,2866.666666666667,18
109_pomper_saffran_2016_43,11,black,43,109,black,target,106,0,1,0.7641509433962264,1,NA,1,NA,0,1766.6666666666667,1766.6666666666667,3533.3333333333335,18
109_pomper_saffran_2016_43,13,yellow,43,109,yellow,target,77,25,0.7549019607843137,0.7264150943396226,1,NA,1,NA,1,1283.3333333333335,1283.3333333333335,2566.666666666667,18
110_pomper_saffran_2016_47,1,blue,47,110,blue,target,56,34,0.6222222222222222,NA,1,NA,0,NA,1,933.3333333333334,933.3333333333334,1866.6666666666667,22
110_pomper_saffran_2016_47,2,green,47,110,green,target,58,0,1,NA,2,NA,1,NA,0,483.33333333333337,350,1233.3333333333335,22
110_pomper_saffran_2016_47,5,green,47,110,green,target,106,0,1,NA,1,NA,1,NA,0,1766.6666666666667,1766.6666666666667,3533.3333333333335,22
110_pomper_saffran_2016_47,8,white,47,110,white,target,53,49,0.5196078431372549,NA,1,NA,0,NA,1,883.3333333333334,883.3333333333334,1766.6666666666667,22
111_pomper_saffran_2016_42,10,orange,42,111,orange,target,82,18,0.82,NA,1,NA,0,NA,1,1300,1300,2600,17
111_pomper_saffran_2016_42,12,white,42,111,white,target,53,44,0.5463917525773195,0.39622641509433965,2,NA,0,NA,1,441.6666666666667,400,966.6666666666667,17
111_pomper_saffran_2016_42,14,red,42,111,red,target,79,21,0.79,NA,2,NA,0,NA,2,658.3333333333334,333.33333333333337,1966.6666666666667,17
111_pomper_saffran_2016_42,15,brown,42,111,brown,target,90,11,0.8910891089108911,0.4339622641509434,1,NA,0,NA,0,1383.3333333333335,1383.3333333333335,2766.666666666667,17
112_pomper_saffran_2016_43,1,orange,43,112,orange,target,106,0,1,NA,1,NA,1,NA,0,1766.6666666666667,1766.6666666666667,3533.3333333333335,18
112_pomper_saffran_2016_43,5,red,43,112,red,target,97,4,0.9603960396039604,NA,1,NA,0,NA,0,1616.6666666666667,1616.6666666666667,3233.3333333333335,18
112_pomper_saffran_2016_43,7,orange,43,112,orange,target,96,0,1,NA,1,NA,1,NA,0,1600,1600,3200,18
113_pomper_saffran_2016_42,5,yellow,42,113,yellow,target,77,7,0.9166666666666666,NA,1,NA,0,NA,0,1283.3333333333335,1283.3333333333335,2566.666666666667,17
113_pomper_saffran_2016_42,7,white,42,113,white,target,51,53,0.49038461538461536,NA,1,NA,0,NA,1,850.0000000000001,850.0000000000001,1700.0000000000002,17
113_pomper_saffran_2016_42,8,blue,42,113,blue,target,57,41,0.5816326530612245,NA,2,NA,0,NA,2,475,300,1300,17
114_pomper_saffran_2016_42,9,green,42,114,green,target,47,53,0.47,NA,1,NA,0,NA,1,650,650,1300,17
114_pomper_saffran_2016_42,11,black,42,114,black,target,103,0,1,NA,1,NA,1,NA,0,1716.6666666666667,1716.6666666666667,3433.3333333333335,17
114_pomper_saffran_2016_42,12,brown,42,114,brown,target,83,17,0.83,NA,1,NA,0,NA,1,1233.3333333333335,1233.3333333333335,2466.666666666667,17
114_pomper_saffran_2016_42,16,blue,42,114,blue,target,80,20,0.8,NA,1,NA,0,NA,1,1183.3333333333335,1183.3333333333335,2366.666666666667,17
115_pomper_saffran_2016_42,13,red,42,115,red,target,106,0,1,NA,1,NA,1,NA,0,1766.6666666666667,1766.6666666666667,3533.3333333333335,17
115_pomper_saffran_2016_42,15,orange,42,115,orange,target,67,28,0.7052631578947368,NA,1,NA,0,NA,1,1016.6666666666667,1016.6666666666667,2033.3333333333335,17
115_pomper_saffran_2016_42,16,brown,42,115,brown,target,85,16,0.8415841584158416,NA,1,NA,0,NA,1,1233.3333333333335,1233.3333333333335,2466.666666666667,17
116_pomper_saffran_2016_45,1,red,45,116,red,target,91,9,0.91,NA,1,NA,0,NA,0,1450,1450,2900,20
116_pomper_saffran_2016_45,6,red,45,116,red,target,106,0,1,NA,1,NA,1,NA,0,1766.6666666666667,1766.6666666666667,3533.3333333333335,20
116_pomper_saffran_2016_45,8,orange,45,116,orange,target,67,35,0.6568627450980392,NA,1,NA,1,NA,1,1116.6666666666667,1116.6666666666667,2233.3333333333335,20
117_pomper_saffran_2016_43,13,green,43,117,green,target,86,17,0.8349514563106796,NA,1,NA,0,NA,1,1433.3333333333335,1433.3333333333335,2866.666666666667,18
117_pomper_saffran_2016_43,14,yellow,43,117,yellow,target,106,0,1,NA,1,NA,1,NA,0,1766.6666666666667,1766.6666666666667,3533.3333333333335,18
117_pomper_saffran_2016_43,15,blue,43,117,blue,target,106,0,1,NA,1,NA,1,NA,0,1766.6666666666667,1766.6666666666667,3533.3333333333335,18
117_pomper_saffran_2016_43,16,white,43,117,white,target,68,5,0.9315068493150684,NA,1,NA,1,NA,0,1133.3333333333335,1133.3333333333335,2266.666666666667,18
118_pomper_saffran_2016_42,9,red,42,118,red,target,79,19,0.8061224489795918,NA,2,NA,0,NA,2,658.3333333333334,333.33333333333337,1966.6666666666667,17
118_pomper_saffran_2016_42,12,white,42,118,white,target,42,55,0.4329896907216495,0.39622641509433965,1,NA,0,NA,1,516.6666666666667,516.6666666666667,1033.3333333333335,17
118_pomper_saffran_2016_42,15,brown,42,118,brown,target,106,0,1,0.4811320754716981,1,NA,1,NA,0,1766.6666666666667,1766.6666666666667,3533.3333333333335,17
119_pomper_saffran_2016_43,2,black,43,119,black,target,105,0,1,NA,1,NA,1,NA,0,1750.0000000000002,1750.0000000000002,3500.0000000000005,18
119_pomper_saffran_2016_43,6,blue,43,119,blue,target,106,0,1,NA,1,NA,1,NA,0,1766.6666666666667,1766.6666666666667,3533.3333333333335,18
119_pomper_saffran_2016_43,7,black,43,119,black,target,106,0,1,NA,1,NA,1,NA,0,1766.6666666666667,1766.6666666666667,3533.3333333333335,18
120_pomper_saffran_2016_42,11,red,42,120,red,target,24,71,0.25263157894736843,NA,1,NA,0,NA,1,250.00000000000003,250.00000000000003,500.00000000000006,17
120_pomper_saffran_2016_42,12,orange,42,120,orange,target,51,7,0.8793103448275862,NA,1,NA,0,NA,0,733.3333333333334,733.3333333333334,1466.6666666666667,17
121_pomper_saffran_2016_42,2,blue,42,121,blue,target,84,13,0.865979381443299,NA,1,NA,1,NA,1,1400,1400,2800,17
121_pomper_saffran_2016_42,5,yellow,42,121,yellow,target,106,0,1,NA,1,NA,1,NA,0,1766.6666666666667,1766.6666666666667,3533.3333333333335,17
121_pomper_saffran_2016_42,7,white,42,121,white,target,83,16,0.8383838383838383,NA,1,NA,0,NA,1,1250,1250,2500,17
121_pomper_saffran_2016_42,8,blue,42,121,blue,target,72,25,0.7422680412371134,NA,1,NA,0,NA,1,1066.6666666666667,1066.6666666666667,2133.3333333333335,17
122_pomper_saffran_2016_44,2,yellow,44,122,yellow,target,106,0,1,NA,1,NA,1,NA,0,1766.6666666666667,1766.6666666666667,3533.3333333333335,19
122_pomper_saffran_2016_44,4,orange,44,122,orange,target,83,17,0.83,NA,1,NA,0,NA,1,1316.6666666666667,1316.6666666666667,2633.3333333333335,19
122_pomper_saffran_2016_44,5,white,44,122,white,target,95,6,0.9405940594059405,NA,1,NA,1,NA,0,1583.3333333333335,1583.3333333333335,3166.666666666667,19
122_pomper_saffran_2016_44,8,red,44,122,red,target,106,0,1,NA,1,NA,1,NA,0,1766.6666666666667,1766.6666666666667,3533.3333333333335,19
123_pomper_saffran_2016_43,10,white,43,123,white,target,74,27,0.7326732673267327,0.5188679245283019,1,NA,0,NA,1,1083.3333333333335,1083.3333333333335,2166.666666666667,18
123_pomper_saffran_2016_43,11,green,43,123,green,target,68,32,0.68,NA,1,NA,1,NA,1,1050,1050,2100,18
123_pomper_saffran_2016_43,13,brown,43,123,brown,target,82,19,0.8118811881188119,0.5188679245283019,2,NA,0,NA,2,683.3333333333334,783.3333333333334,1566.6666666666667,18
123_pomper_saffran_2016_43,14,blue,43,123,blue,target,63,35,0.6428571428571429,NA,1,NA,0,NA,1,1050,1050,2100,18
123_pomper_saffran_2016_43,16,black,43,123,black,target,106,0,1,NA,1,NA,1,NA,0,1766.6666666666667,1766.6666666666667,3533.3333333333335,18
124_pomper_saffran_2016_42,4,orange,42,124,orange,target,48,42,0.5333333333333333,NA,2,NA,0,NA,3,383.33333333333337,266.6666666666667,1000.0000000000001,17
124_pomper_saffran_2016_42,7,green,42,124,green,target,93,0,1,NA,2,NA,1,NA,0,775,800,1600,17
125_pomper_saffran_2016_43,9,white,43,125,white,target,106,0,1,NA,1,NA,1,NA,0,1766.6666666666667,1766.6666666666667,3533.3333333333335,18
125_pomper_saffran_2016_43,11,red,43,125,red,target,106,0,1,NA,1,NA,1,NA,0,1766.6666666666667,1766.6666666666667,3533.3333333333335,18
125_pomper_saffran_2016_43,15,black,43,125,black,target,106,0,1,NA,1,NA,1,NA,0,1766.6666666666667,1766.6666666666667,3533.3333333333335,18
126_pomper_saffran_2016_44,3,green,44,126,green,target,85,13,0.8673469387755102,NA,2,NA,0,NA,2,708.3333333333334,650,1533.3333333333335,19
126_pomper_saffran_2016_44,5,brown,44,126,brown,target,89,12,0.8811881188118812,NA,1,NA,0,NA,1,1300,1300,2600,19
126_pomper_saffran_2016_44,6,blue,44,126,blue,target,106,0,1,NA,1,NA,1,NA,0,1766.6666666666667,1766.6666666666667,3533.3333333333335,19
126_pomper_saffran_2016_44,8,black,44,126,black,target,64,39,0.6213592233009708,NA,1,NA,1,NA,1,1066.6666666666667,1066.6666666666667,2133.3333333333335,19
127_pomper_saffran_2016_41,10,red,41,127,red,target,74,26,0.74,NA,2,NA,0,NA,2,616.6666666666667,266.6666666666667,1933.3333333333335,16
128_pomper_saffran_2016_47,9,brown,47,128,brown,target,66,33,0.6666666666666666,0.17924528301886788,2,NA,0,NA,2,550,333.33333333333337,1533.3333333333335,22
128_pomper_saffran_2016_47,10,yellow,47,128,yellow,target,74,25,0.7474747474747475,NA,2,NA,0,NA,2,616.6666666666667,733.3333333333334,1466.6666666666667,22
128_pomper_saffran_2016_47,12,orange,47,128,orange,target,106,0,1,NA,1,NA,1,NA,0,1766.6666666666667,1766.6666666666667,3533.3333333333335,22
128_pomper_saffran_2016_47,13,white,47,128,white,target,53,47,0.53,0.18867924528301888,1,NA,0,NA,1,883.3333333333334,883.3333333333334,1766.6666666666667,22
128_pomper_saffran_2016_47,15,yellow,47,128,yellow,target,76,24,0.76,NA,1,NA,0,NA,1,1150,1150,2300,22
129_pomper_saffran_2016_45,3,yellow,45,129,yellow,target,73,25,0.7448979591836735,NA,1,NA,0,NA,1,1150,1150,2300,20
129_pomper_saffran_2016_45,4,white,45,129,white,target,78,0,1,0.48113207547169806,2,NA,1,NA,0,650,816.6666666666667,1633.3333333333335,20
129_pomper_saffran_2016_45,7,orange,45,129,orange,target,59,0,1,NA,1,NA,1,NA,0,983.3333333333334,983.3333333333334,1966.6666666666667,20
129_pomper_saffran_2016_45,8,brown,45,129,brown,target,39,27,0.5909090909090909,0.36792452830188677,1,NA,0,NA,1,650,650,1300,20
130_pomper_saffran_2016_44,12,brown,44,130,brown,target,106,0,1,NA,1,NA,1,NA,0,1766.6666666666667,1766.6666666666667,3533.3333333333335,19
130_pomper_saffran_2016_44,13,yellow,44,130,yellow,target,106,0,1,NA,1,NA,1,NA,0,1766.6666666666667,1766.6666666666667,3533.3333333333335,19
130_pomper_saffran_2016_44,14,green,44,130,green,target,75,27,0.7352941176470589,NA,2,NA,0,NA,2,625,483.33333333333337,1533.3333333333335,19
130_pomper_saffran_2016_44,16,blue,44,130,blue,target,105,0,1,NA,1,NA,1,NA,0,1750.0000000000002,1750.0000000000002,3500.0000000000005,19
131_pomper_saffran_2016_42,2,green,42,131,green,target,106,0,1,NA,1,NA,1,NA,0,1766.6666666666667,1766.6666666666667,3533.3333333333335,17
131_pomper_saffran_2016_42,3,black,42,131,black,target,106,0,1,1,1,NA,1,NA,0,1766.6666666666667,1766.6666666666667,3533.3333333333335,17
131_pomper_saffran_2016_42,6,yellow,42,131,yellow,target,106,0,1,1,1,NA,1,NA,0,1766.6666666666667,1766.6666666666667,3533.3333333333335,17
131_pomper_saffran_2016_42,8,white,42,131,white,target,95,7,0.9313725490196079,NA,1,NA,1,NA,0,1583.3333333333335,1583.3333333333335,3166.666666666667,17
132_pomper_saffran_2016_41,10,orange,41,132,orange,target,106,0,1,NA,1,NA,1,NA,0,1766.6666666666667,1766.6666666666667,3533.3333333333335,16
132_pomper_saffran_2016_41,11,yellow,41,132,yellow,target,106,0,1,NA,1,NA,1,NA,0,1766.6666666666667,1766.6666666666667,3533.3333333333335,16
132_pomper_saffran_2016_41,12,white,41,132,white,target,75,25,0.75,NA,1,NA,0,NA,1,1183.3333333333335,1183.3333333333335,2366.666666666667,16
133_pomper_saffran_2016_45,4,brown,45,133,brown,target,84,18,0.8235294117647058,NA,1,NA,0,NA,1,1283.3333333333335,1283.3333333333335,2566.666666666667,20
133_pomper_saffran_2016_45,6,green,45,133,green,target,78,18,0.8125,NA,1,NA,1,NA,1,1200,1200,2400,20
134_pomper_saffran_2016_44,13,red,44,134,red,target,55,49,0.5288461538461539,NA,1,NA,0,NA,1,916.6666666666667,916.6666666666667,1833.3333333333335,19
134_pomper_saffran_2016_44,16,brown,44,134,brown,target,67,32,0.6767676767676768,NA,2,NA,0,NA,2,558.3333333333334,616.6666666666667,1233.3333333333335,19
135_pomper_saffran_2016_46,1,red,46,135,red,target,79,0,1,NA,2,NA,1,NA,0,658.3333333333334,1066.6666666666667,2133.3333333333335,21
135_pomper_saffran_2016_46,4,white,46,135,white,target,55,0,1,0.169811320754717,1,NA,1,NA,0,750,750,1500,21
135_pomper_saffran_2016_46,7,brown,46,135,brown,target,61,37,0.6224489795918368,0.5754716981132075,2,NA,0,NA,2,508.33333333333337,400,1233.3333333333335,21
136_pomper_saffran_2016_42,1,red,42,136,red,target,82,16,0.8367346938775511,NA,2,NA,0,NA,2,683.3333333333334,400,1933.3333333333335,17
136_pomper_saffran_2016_42,2,orange,42,136,orange,target,92,10,0.9019607843137255,NA,1,NA,1,NA,0,1533.3333333333335,1533.3333333333335,3066.666666666667,17
136_pomper_saffran_2016_42,3,yellow,42,136,yellow,target,62,38,0.62,0.36792452830188677,2,NA,0,NA,2,516.6666666666666,800,1600,17
136_pomper_saffran_2016_42,5,black,42,136,black,target,70,23,0.7526881720430108,0.3018867924528302,2,NA,0,NA,2,583.3333333333334,600,1200,17
137_pomper_saffran_2016_45,9,blue,45,137,blue,target,106,0,1,NA,1,NA,1,NA,0,1766.6666666666667,1766.6666666666667,3533.3333333333335,20
137_pomper_saffran_2016_45,14,yellow,45,137,yellow,target,53,46,0.5353535353535354,NA,1,NA,1,NA,1,883.3333333333334,883.3333333333334,1766.6666666666667,20
137_pomper_saffran_2016_45,15,blue,45,137,blue,target,106,0,1,NA,1,NA,1,NA,0,1766.6666666666667,1766.6666666666667,3533.3333333333335,20
138_pomper_saffran_2016_43,3,red,43,138,red,target,91,0,1,NA,1,NA,1,NA,0,1516.6666666666667,1516.6666666666667,3033.3333333333335,18
138_pomper_saffran_2016_43,4,blue,43,138,blue,target,40,62,0.39215686274509803,NA,1,NA,0,NA,1,666.6666666666667,666.6666666666667,1333.3333333333335,18
138_pomper_saffran_2016_43,7,black,43,138,black,target,67,34,0.6633663366336634,NA,1,NA,1,NA,1,1116.6666666666667,1116.6666666666667,2233.3333333333335,18
139_pomper_saffran_2016_45,10,brown,45,139,brown,target,61,35,0.6354166666666666,NA,2,NA,0,NA,2,433.33333333333337,550,1100,20
139_pomper_saffran_2016_45,12,orange,45,139,orange,target,0,106,0,NA,NA,NA,0,NA,0,NA,NA,NA,20
139_pomper_saffran_2016_45,15,green,45,139,green,target,106,0,1,NA,1,NA,1,NA,0,1766.6666666666667,1766.6666666666667,3533.3333333333335,20
140_pomper_saffran_2016_46,8,red,46,140,red,target,92,13,0.8761904761904762,NA,1,NA,1,NA,1,1533.3333333333335,1533.3333333333335,3066.666666666667,21
141_pomper_saffran_2016_47,10,green,47,141,green,target,62,39,0.6138613861386139,NA,2,NA,0,NA,2,516.6666666666667,516.6666666666667,1033.3333333333335,22
141_pomper_saffran_2016_47,11,black,47,141,black,target,48,55,0.46601941747572817,NA,1,NA,0,NA,1,800,800,1600,22
141_pomper_saffran_2016_47,13,green,47,141,green,target,71,26,0.7319587628865979,NA,1,NA,0,NA,1,1183.3333333333335,1183.3333333333335,2366.666666666667,22
142_pomper_saffran_2016_46,3,red,46,142,red,target,106,0,1,0.6603773584905661,1,NA,1,NA,0,1766.6666666666667,1766.6666666666667,3533.3333333333335,21
142_pomper_saffran_2016_46,8,green,46,142,green,target,66,36,0.6470588235294118,0.6226415094339622,2,NA,0,NA,2,550,583.3333333333334,1166.6666666666667,21
143_pomper_saffran_2016_45,10,brown,45,143,brown,target,106,0,1,NA,1,NA,1,NA,0,1766.6666666666667,1766.6666666666667,3533.3333333333335,20
143_pomper_saffran_2016_45,16,yellow,45,143,yellow,target,106,0,1,NA,1,NA,1,NA,0,1766.6666666666667,1766.6666666666667,3533.3333333333335,20
144_pomper_saffran_2016_46,1,yellow,46,144,yellow,target,106,0,1,NA,1,NA,1,NA,0,1766.6666666666667,1766.6666666666667,3533.3333333333335,21
145_pomper_saffran_2016_47,9,black,47,145,black,target,83,13,0.8645833333333334,NA,2,NA,1,NA,2,691.6666666666666,1150,2300,22
145_pomper_saffran_2016_47,10,white,47,145,white,target,79,0,1,0.5660377358490566,2,NA,1,NA,0,658.3333333333334,1066.6666666666667,2133.3333333333335,22
145_pomper_saffran_2016_47,11,green,47,145,green,target,75,5,0.9375,NA,2,NA,0,NA,0,625,583.3333333333334,1333.3333333333335,22
145_pomper_saffran_2016_47,13,brown,47,145,brown,target,66,19,0.7764705882352941,0.6226415094339622,2,NA,0,NA,1,550,750,1500,22
146_pomper_saffran_2016_43,11,green,43,146,green,target,67,11,0.8589743589743589,0.6320754716981132,1,NA,1,NA,0,1066.6666666666667,1066.6666666666667,2133.3333333333335,18
146_pomper_saffran_2016_43,12,blue,43,146,blue,target,97,0,1,NA,1,NA,1,NA,0,1616.6666666666667,1616.6666666666667,3233.3333333333335,18
146_pomper_saffran_2016_43,13,brown,43,146,brown,target,81,23,0.7788461538461539,NA,1,NA,1,NA,1,1350,1350,2700,18
146_pomper_saffran_2016_43,15,red,43,146,red,target,84,0,1,0.6886792452830189,2,NA,1,NA,0,700,616.6666666666667,1566.6666666666667,18
147_pomper_saffran_2016_46,14,blue,46,147,blue,target,106,0,1,NA,1,NA,1,NA,0,1766.6666666666667,1766.6666666666667,3533.3333333333335,21
148_pomper_saffran_2016_44,1,yellow,44,148,yellow,target,28,40,0.4117647058823529,NA,1,NA,0,NA,1,316.6666666666667,316.6666666666667,633.3333333333334,19
148_pomper_saffran_2016_44,4,orange,44,148,orange,target,44,55,0.4444444444444444,NA,2,NA,0,NA,2,366.6666666666667,483.33333333333337,966.6666666666667,19
148_pomper_saffran_2016_44,6,orange,44,148,orange,target,106,0,1,NA,1,NA,1,NA,0,1766.6666666666667,1766.6666666666667,3533.3333333333335,19
148_pomper_saffran_2016_44,8,yellow,44,148,yellow,target,106,0,1,NA,1,NA,1,NA,0,1766.6666666666667,1766.6666666666667,3533.3333333333335,19
149_pomper_saffran_2016_44,10,yellow,44,149,yellow,target,106,0,1,NA,1,NA,1,NA,0,1766.6666666666667,1766.6666666666667,3533.3333333333335,19
149_pomper_saffran_2016_44,11,green,44,149,green,target,106,0,1,1,1,NA,1,NA,0,1766.6666666666667,1766.6666666666667,3533.3333333333335,19
149_pomper_saffran_2016_44,13,white,44,149,white,target,69,27,0.71875,NA,1,NA,0,NA,1,1150,1150,2300,19
149_pomper_saffran_2016_44,16,red,44,149,red,target,106,0,1,1,1,NA,1,NA,0,1766.6666666666667,1766.6666666666667,3533.3333333333335,19
150_pomper_saffran_2016_43,11,red,43,150,red,target,106,0,1,0.8018867924528301,1,NA,1,NA,0,1766.6666666666667,1766.6666666666667,3533.3333333333335,18
150_pomper_saffran_2016_43,14,blue,43,150,blue,target,106,0,1,NA,1,NA,1,NA,0,1766.6666666666667,1766.6666666666667,3533.3333333333335,18
150_pomper_saffran_2016_43,15,black,43,150,black,target,106,0,1,NA,1,NA,1,NA,0,1766.6666666666667,1766.6666666666667,3533.3333333333335,18
150_pomper_saffran_2016_43,16,green,43,150,green,target,76,21,0.7835051546391752,0.71698113207547165,2,NA,0,NA,2,633.3333333333334,750,1500,18
151_pomper_saffran_2016_45,1,brown,45,151,brown,target,52,43,0.5473684210526316,NA,2,NA,0,NA,3,341.6666666666667,216.66666666666669,933.3333333333334,20
151_pomper_saffran_2016_45,3,green,45,151,green,target,69,24,0.7419354838709677,0.2264150943396226,1,NA,0,NA,1,966.6666666666667,966.6666666666667,1933.3333333333335,20
151_pomper_saffran_2016_45,4,orange,45,151,orange,target,55,40,0.5789473684210527,NA,2,NA,0,NA,2,433.33333333333337,500.00000000000006,1000.0000000000001,20
151_pomper_saffran_2016_45,6,orange,45,151,orange,target,52,48,0.52,NA,2,NA,0,NA,2,433.33333333333337,216.66666666666669,1300,20
151_pomper_saffran_2016_45,8,red,45,151,red,target,58,45,0.5631067961165048,0.32075471698113206,2,NA,0,NA,2,483.33333333333337,683.3333333333334,1366.6666666666667,20
152_pomper_saffran_2016_46,4,blue,46,152,blue,target,48,16,0.75,NA,1,NA,0,NA,1,683.3333333333334,683.3333333333334,1366.6666666666667,21
152_pomper_saffran_2016_46,7,red,46,152,red,target,31,72,0.30097087378640774,NA,1,NA,0,NA,2,383.33333333333337,383.33333333333337,766.6666666666667,21
153_pomper_saffran_2016_45,2,white,45,153,white,target,106,0,1,0.4811320754716981,1,NA,1,NA,0,1766.6666666666667,1766.6666666666667,3533.3333333333335,20
153_pomper_saffran_2016_45,5,brown,45,153,brown,target,45,55,0.45,0.42452830188679247,1,NA,0,NA,2,750,750,1500,20
153_pomper_saffran_2016_45,6,blue,45,153,blue,target,37,62,0.37373737373737376,NA,1,NA,0,NA,1,566.6666666666667,566.6666666666667,1133.3333333333335,20
153_pomper_saffran_2016_45,8,black,45,153,black,target,106,0,1,NA,1,NA,1,NA,0,1766.6666666666667,1766.6666666666667,3533.3333333333335,20
154_pomper_saffran_2016_41,10,yellow,41,154,yellow,target,91,13,0.875,NA,1,NA,1,NA,1,1516.6666666666667,1516.6666666666667,3033.3333333333335,16
154_pomper_saffran_2016_41,11,green,41,154,green,target,76,28,0.7307692307692307,0.49999999999999994,1,NA,0,NA,1,1216.6666666666667,1216.6666666666667,2433.3333333333335,16
154_pomper_saffran_2016_41,14,orange,41,154,orange,target,82,18,0.82,NA,1,NA,0,NA,1,1366.6666666666667,1366.6666666666667,2733.3333333333335,16
154_pomper_saffran_2016_41,15,yellow,41,154,yellow,target,106,0,1,NA,1,NA,1,NA,0,1766.6666666666667,1766.6666666666667,3533.3333333333335,16
154_pomper_saffran_2016_41,16,red,41,154,red,target,79,23,0.7745098039215687,0.48113207547169806,1,NA,0,NA,1,1300,1300,2600,16
155_pomper_saffran_2016_44,1,orange,44,155,orange,target,106,0,1,NA,1,NA,1,NA,0,1766.6666666666667,1766.6666666666667,3533.3333333333335,19
155_pomper_saffran_2016_44,2,red,44,155,red,target,106,0,1,NA,1,NA,1,NA,0,1766.6666666666667,1766.6666666666667,3533.3333333333335,19
155_pomper_saffran_2016_44,4,white,44,155,white,target,60,38,0.6122448979591837,NA,1,NA,1,NA,1,1000.0000000000001,1000.0000000000001,2000.0000000000002,19
155_pomper_saffran_2016_44,5,red,44,155,red,target,106,0,1,NA,1,NA,1,NA,0,1766.6666666666667,1766.6666666666667,3533.3333333333335,19
156_pomper_saffran_2016_46,11,black,46,156,black,target,78,0,1,NA,2,NA,1,NA,0,650,883.3333333333334,1766.6666666666667,21
156_pomper_saffran_2016_46,15,white,46,156,white,target,77,26,0.7475728155339806,NA,1,NA,1,NA,1,1283.3333333333335,1283.3333333333335,2566.666666666667,21
156_pomper_saffran_2016_46,16,blue,46,156,blue,target,62,36,0.6326530612244898,NA,2,NA,0,NA,2,516.6666666666667,283.33333333333337,1500,21
157_pomper_saffran_2016_46,2,green,46,157,green,target,106,0,1,NA,1,NA,1,NA,0,1766.6666666666667,1766.6666666666667,3533.3333333333335,21
157_pomper_saffran_2016_46,3,black,46,157,black,target,106,0,1,NA,1,NA,1,NA,0,1766.6666666666667,1766.6666666666667,3533.3333333333335,21
157_pomper_saffran_2016_46,7,blue,46,157,blue,target,70,32,0.6862745098039216,NA,2,NA,0,NA,2,583.3333333333334,733.3333333333334,1466.6666666666667,21
157_pomper_saffran_2016_46,8,white,46,157,white,target,74,24,0.7551020408163265,NA,2,NA,0,NA,2,616.6666666666667,583.3333333333334,1300,21
158_pomper_saffran_2016_47,1,blue,47,158,blue,target,36,67,0.34951456310679613,NA,1,NA,0,NA,1,600,600,1200,22
158_pomper_saffran_2016_47,3,black,47,158,black,target,76,0,1,NA,1,NA,1,NA,0,1116.6666666666667,1116.6666666666667,2233.3333333333335,22
158_pomper_saffran_2016_47,7,blue,47,158,blue,target,71,8,0.8987341772151899,NA,1,NA,1,NA,0,1183.3333333333335,1183.3333333333335,2366.666666666667,22
159_pomper_saffran_2016_47,11,yellow,47,159,yellow,target,106,0,1,0.6981132075471699,1,NA,1,NA,0,1766.6666666666667,1766.6666666666667,3533.3333333333335,22
159_pomper_saffran_2016_47,12,white,47,159,white,target,24,40,0.375,NA,1,NA,0,NA,1,316.6666666666667,316.6666666666667,633.3333333333334,22
159_pomper_saffran_2016_47,13,black,47,159,black,target,66,32,0.673469387755102,0.6226415094339622,1,NA,0,NA,1,983.3333333333334,983.3333333333334,1966.6666666666667,22
160_pomper_saffran_2016_43,1,green,43,160,green,target,76,26,0.7450980392156863,NA,1,NA,0,NA,1,1216.6666666666667,1216.6666666666667,2433.3333333333335,18
160_pomper_saffran_2016_43,2,blue,43,160,blue,target,24,73,0.24742268041237114,NA,1,NA,0,NA,1,333.33333333333337,333.33333333333337,666.6666666666667,18
160_pomper_saffran_2016_43,5,yellow,43,160,yellow,target,106,0,1,NA,1,NA,1,NA,0,1766.6666666666667,1766.6666666666667,3533.3333333333335,18
160_pomper_saffran_2016_43,7,white,43,160,white,target,106,0,1,NA,1,NA,1,NA,0,1766.6666666666667,1766.6666666666667,3533.3333333333335,18
161_pomper_saffran_2016_44,1,orange,44,161,orange,target,39,33,0.5416666666666666,NA,1,NA,1,NA,1,650,650,1300,19
161_pomper_saffran_2016_44,2,red,44,161,red,target,77,0,1,NA,1,NA,1,NA,0,1283.3333333333335,1283.3333333333335,2566.666666666667,19
161_pomper_saffran_2016_44,7,orange,44,161,orange,target,23,71,0.24468085106382978,NA,1,NA,0,NA,1,266.6666666666667,266.6666666666667,533.3333333333334,19
162_pomper_saffran_2016_45,10,blue,45,162,blue,target,63,34,0.6494845360824743,NA,2,NA,0,NA,2,525,600,1200,20
162_pomper_saffran_2016_45,12,brown,45,162,brown,target,97,6,0.941747572815534,NA,1,NA,1,NA,0,1616.6666666666667,1616.6666666666667,3233.3333333333335,20
163_pomper_saffran_2016_46,1,blue,46,163,blue,target,75,28,0.7281553398058253,NA,2,NA,0,NA,2,625,616.6666666666667,1266.6666666666667,21
163_pomper_saffran_2016_46,2,green,46,163,green,target,91,9,0.91,NA,1,NA,0,NA,0,1383.3333333333335,1383.3333333333335,2766.666666666667,21
163_pomper_saffran_2016_46,4,brown,46,163,brown,target,66,24,0.7333333333333333,0.6226415094339622,1,NA,0,NA,1,983.3333333333334,983.3333333333334,1966.6666666666667,21
163_pomper_saffran_2016_46,6,yellow,46,163,yellow,target,106,0,1,NA,1,NA,1,NA,0,1766.6666666666667,1766.6666666666667,3533.3333333333335,21
163_pomper_saffran_2016_46,7,blue,46,163,blue,target,60,44,0.5769230769230769,NA,2,NA,0,NA,2,500.00000000000006,516.6666666666667,1033.3333333333335,21
163_pomper_saffran_2016_46,8,white,46,163,white,target,106,0,1,0.7735849056603774,1,NA,1,NA,0,1766.6666666666667,1766.6666666666667,3533.3333333333335,21
165_pomper_saffran_2016_46,4,blue,46,165,blue,target,59,32,0.6483516483516484,NA,2,NA,0,NA,2,441.6666666666667,466.6666666666667,933.3333333333334,21
165_pomper_saffran_2016_46,5,brown,46,165,brown,target,63,0,1,NA,1,NA,1,NA,0,1050,1050,2100,21
165_pomper_saffran_2016_46,6,blue,46,165,blue,target,57,23,0.7125,NA,1,NA,1,NA,1,950.0000000000001,950.0000000000001,1900.0000000000002,21
166_pomper_saffran_2016_47,9,orange,47,166,orange,target,106,0,1,NA,1,NA,1,NA,0,1766.6666666666667,1766.6666666666667,3533.3333333333335,22
166_pomper_saffran_2016_47,12,white,47,166,white,target,100,2,0.9803921568627451,NA,1,NA,1,NA,0,1666.6666666666667,1666.6666666666667,3333.3333333333335,22
166_pomper_saffran_2016_47,15,orange,47,166,orange,target,95,0,1,NA,2,NA,1,NA,0,791.6666666666667,1216.6666666666667,2433.3333333333335,22
167_pomper_saffran_2016_46,2,blue,46,167,blue,target,106,0,1,NA,1,NA,1,NA,0,1766.6666666666667,1766.6666666666667,3533.3333333333335,21
167_pomper_saffran_2016_46,3,black,46,167,black,target,106,0,1,NA,1,NA,1,NA,0,1766.6666666666667,1766.6666666666667,3533.3333333333335,21
167_pomper_saffran_2016_46,6,green,46,167,green,target,97,8,0.9238095238095239,NA,1,NA,0,NA,0,1616.6666666666667,1616.6666666666667,3233.3333333333335,21
167_pomper_saffran_2016_46,7,white,46,167,white,target,93,8,0.9207920792079208,NA,1,NA,0,NA,0,1550,1550,3100,21
769_swingley_aslin_2002_15,5,tog,15,439,tog,target,60,45,0.5714285714285714,NA,1,NA,1,NA,1,1000.0000000000001,1000.0000000000001,2000.0000000000002,-10
769_swingley_aslin_2002_15,9,cur,15,439,cur,target,44,58,0.43137254901960786,NA,2,NA,0,NA,2,366.6666666666667,483.33333333333337,966.6666666666667,-10
769_swingley_aslin_2002_15,10,vaby,15,439,vaby,target,106,0,1,NA,1,NA,1,NA,0,1766.6666666666667,1766.6666666666667,3533.3333333333335,-10
769_swingley_aslin_2002_15,18,vaby,15,439,vaby,target,106,0,1,NA,1,NA,1,NA,0,1766.6666666666667,1766.6666666666667,3533.3333333333335,-10
769_swingley_aslin_2002_15,23,cur,15,439,cur,target,106,0,1,NA,1,NA,1,NA,0,1766.6666666666667,1766.6666666666667,3533.3333333333335,-10
769_swingley_aslin_2002_15,25,pity,15,439,pity,target,86,16,0.8431372549019608,NA,2,NA,0,NA,2,716.6666666666667,250.00000000000003,2366.666666666667,-10
770_swingley_aslin_2002_15,6,tog,15,440,tog,target,83,0,1,NA,2,NA,1,NA,0,691.6666666666667,600,1566.6666666666667,-10
770_swingley_aslin_2002_15,9,gall,15,440,gall,target,7,93,0.07,NA,NA,NA,0,NA,0,NA,NA,NA,-10
771_swingley_aslin_2002_15,16,gall,15,441,gall,target,51,54,0.4857142857142857,NA,1,NA,0,NA,1,850.0000000000001,850.0000000000001,1700.0000000000002,-10
771_swingley_aslin_2002_15,17,vaby,15,441,vaby,target,106,0,1,NA,1,NA,1,NA,0,1766.6666666666667,1766.6666666666667,3533.3333333333335,-10
772_swingley_aslin_2002_15,1,pity,15,442,pity,target,57,47,0.5480769230769231,NA,1,NA,0,NA,1,866.6666666666667,866.6666666666667,1733.3333333333335,-10
772_swingley_aslin_2002_15,8,vaby,15,442,vaby,target,73,31,0.7019230769230769,NA,2,NA,0,NA,2,608.3333333333334,800,1600,-10
772_swingley_aslin_2002_15,12,opple,15,442,opple,target,85,20,0.8095238095238095,NA,2,NA,0,NA,2,708.3333333333334,533.3333333333334,1766.6666666666667,-10
772_swingley_aslin_2002_15,17,vaby,15,442,vaby,target,62,42,0.5961538461538461,NA,1,NA,0,NA,1,916.6666666666667,916.6666666666667,1833.3333333333335,-10
773_swingley_aslin_2002_16,50,mog,16,443,mog,target,12,93,0.11428571428571428,NA,1,NA,0,NA,1,200,200,400,-9
773_swingley_aslin_2002_16,51,kier,16,443,kier,target,31,72,0.30097087378640774,NA,2,NA,0,NA,2,258.33333333333337,283.33333333333337,566.6666666666667,-9
773_swingley_aslin_2002_16,52,raby,16,443,raby,target,61,41,0.5980392156862745,NA,1,NA,1,NA,1,1016.6666666666667,1016.6666666666667,2033.3333333333335,-9
773_swingley_aslin_2002_16,54,opal,16,443,opal,target,93,10,0.9029126213592233,NA,2,NA,0,NA,0,775,816.6666666666667,1633.3333333333335,-9
773_swingley_aslin_2002_16,55,shawl,16,443,shawl,target,76,28,0.7307692307692307,NA,2,NA,0,NA,2,633.3333333333334,316.6666666666667,1900.0000000000002,-9
773_swingley_aslin_2002_16,56,raby,16,443,raby,target,60,44,0.5769230769230769,NA,1,NA,0,NA,2,1000.0000000000001,1000.0000000000001,2000.0000000000002,-9
773_swingley_aslin_2002_16,59,yitty,16,443,yitty,target,91,13,0.875,NA,1,NA,1,NA,1,1516.6666666666667,1516.6666666666667,3033.3333333333335,-9
774_swingley_aslin_2002_15,49,yitty,15,444,yitty,target,95,11,0.8962264150943396,NA,2,NA,0,NA,0,791.6666666666667,816.6666666666667,1633.3333333333335,-10
775_swingley_aslin_2002_15,34,yitty,15,445,yitty,target,73,22,0.7684210526315789,NA,1,NA,1,NA,1,1216.6666666666667,1216.6666666666667,2433.3333333333335,-10
775_swingley_aslin_2002_15,36,mog,15,445,mog,target,106,0,1,NA,1,NA,1,NA,0,1766.6666666666667,1766.6666666666667,3533.3333333333335,-10
775_swingley_aslin_2002_15,40,shawl,15,445,shawl,target,75,24,0.7575757575757576,NA,2,NA,0,NA,2,575,716.6666666666667,1433.3333333333335,-10
775_swingley_aslin_2002_15,41,raby,15,445,raby,target,86,17,0.8349514563106796,NA,2,NA,0,NA,2,716.6666666666667,250.00000000000003,2366.666666666667,-10
775_swingley_aslin_2002_15,43,mog,15,445,mog,target,72,33,0.6857142857142857,NA,1,NA,1,NA,1,1200,1200,2400,-10
775_swingley_aslin_2002_15,44,yitty,15,445,yitty,target,106,0,1,NA,1,NA,1,NA,0,1766.6666666666667,1766.6666666666667,3533.3333333333335,-10
776_swingley_aslin_2002_14,34,yitty,14,446,yitty,target,68,34,0.6666666666666666,NA,2,NA,0,NA,2,566.6666666666667,750,1500,-11
776_swingley_aslin_2002_14,35,kier,14,446,kier,target,68,37,0.6476190476190476,NA,1,NA,1,NA,1,1133.3333333333335,1133.3333333333335,2266.666666666667,-11
776_swingley_aslin_2002_14,37,raby,14,446,raby,target,106,0,1,NA,1,NA,1,NA,0,1766.6666666666667,1766.6666666666667,3533.3333333333335,-11
776_swingley_aslin_2002_14,38,shawl,14,446,shawl,target,92,13,0.8761904761904762,NA,1,NA,1,NA,1,1533.3333333333335,1533.3333333333335,3066.666666666667,-11
776_swingley_aslin_2002_14,39,opal,14,446,opal,target,100,0,1,NA,2,NA,1,NA,0,833.3333333333334,983.3333333333334,1966.6666666666667,-11
776_swingley_aslin_2002_14,42,kier,14,446,kier,target,106,0,1,NA,1,NA,1,NA,0,1766.6666666666667,1766.6666666666667,3533.3333333333335,-11
776_swingley_aslin_2002_14,43,mog,14,446,mog,target,106,0,1,NA,1,NA,1,NA,0,1766.6666666666667,1766.6666666666667,3533.3333333333335,-11
777_swingley_aslin_2002_15,42,yitty,15,447,yitty,target,33,71,0.3173076923076923,NA,1,NA,0,NA,1,483.33333333333337,483.33333333333337,966.6666666666667,-10
777_swingley_aslin_2002_15,47,raby,15,447,raby,target,87,18,0.8285714285714286,NA,1,NA,1,NA,1,1450,1450,2900,-10
777_swingley_aslin_2002_15,55,shawl,15,447,shawl,target,106,0,1,NA,1,NA,1,NA,0,1766.6666666666667,1766.6666666666667,3533.3333333333335,-10
778_swingley_aslin_2002_15,37,kier,15,448,kier,target,68,12,0.85,NA,1,NA,0,NA,1,1050,1050,2100,-10
778_swingley_aslin_2002_15,76,mog,15,448,mog,target,75,30,0.7142857142857143,NA,2,NA,1,NA,2,625.0000000000001,1000.0000000000001,2000.0000000000002,-10
778_swingley_aslin_2002_15,87,raby,15,448,raby,target,45,59,0.4326923076923077,NA,1,NA,0,NA,1,733.3333333333334,733.3333333333334,1466.6666666666667,-10
779_swingley_aslin_2002_14,92,raby,14,449,raby,target,18,86,0.17307692307692307,NA,1,NA,0,NA,1,233.33333333333334,233.33333333333334,466.6666666666667,-11
779_swingley_aslin_2002_14,94,mog,14,449,mog,target,106,0,1,NA,1,NA,1,NA,0,1766.6666666666667,1766.6666666666667,3533.3333333333335,-11
779_swingley_aslin_2002_14,97,shawl,14,449,shawl,target,92,13,0.8761904761904762,NA,1,NA,1,NA,1,1533.3333333333335,1533.3333333333335,3066.666666666667,-11
779_swingley_aslin_2002_14,100,mog,14,449,mog,target,106,0,1,NA,1,NA,1,NA,0,1766.6666666666667,1766.6666666666667,3533.3333333333335,-11
779_swingley_aslin_2002_14,108,opal,14,449,opal,target,77,27,0.7403846153846154,NA,2,NA,0,NA,2,641.6666666666667,266.6666666666667,2033.3333333333335,-11
780_swingley_aslin_2002_14,48,opal,14,450,opal,target,69,35,0.6634615384615384,NA,2,NA,0,NA,2,575,600,1200,-11
780_swingley_aslin_2002_14,50,mog,14,450,mog,target,53,51,0.5096153846153846,NA,1,NA,0,NA,1,883.3333333333334,883.3333333333334,1766.6666666666667,-11
780_swingley_aslin_2002_14,54,opal,14,450,opal,target,48,55,0.46601941747572817,NA,2,NA,0,NA,2,400,250.00000000000003,1100,-11
780_swingley_aslin_2002_14,55,shawl,14,450,shawl,target,43,60,0.4174757281553398,NA,1,NA,0,NA,2,600,600,1200,-11
781_swingley_aslin_2002_15,46,yitty,15,451,yitty,target,51,46,0.5257731958762887,NA,2,NA,0,NA,2,425,550,1100,-10
781_swingley_aslin_2002_15,55,kier,15,451,kier,target,74,0,1,NA,2,NA,1,NA,0,616.6666666666667,333.33333333333337,1800.0000000000002,-10
781_swingley_aslin_2002_15,94,mog,15,451,mog,target,55,50,0.5238095238095238,NA,1,NA,0,NA,1,916.6666666666667,916.6666666666667,1833.3333333333335,-10
781_swingley_aslin_2002_15,101,yitty,15,451,yitty,target,106,0,1,NA,1,NA,1,NA,0,1766.6666666666667,1766.6666666666667,3533.3333333333335,-10
781_swingley_aslin_2002_15,105,raby,15,451,raby,target,52,50,0.5098039215686274,NA,1,NA,0,NA,1,866.6666666666667,866.6666666666667,1733.3333333333335,-10
781_swingley_aslin_2002_15,108,opal,15,451,opal,target,106,0,1,NA,1,NA,1,NA,0,1766.6666666666667,1766.6666666666667,3533.3333333333335,-10
782_swingley_aslin_2002_15,34,yitty,15,452,yitty,target,56,47,0.5436893203883495,NA,1,NA,0,NA,1,783.3333333333334,783.3333333333334,1566.6666666666667,-10
782_swingley_aslin_2002_15,35,kier,15,452,kier,target,72,30,0.7058823529411765,NA,2,NA,1,NA,2,600.0000000000001,950.0000000000001,1900.0000000000002,-10
783_swingley_aslin_2002_15,34,yitty,15,453,yitty,target,62,39,0.6138613861386139,NA,2,NA,0,NA,2,516.6666666666667,550,1100,-10
783_swingley_aslin_2002_15,37,raby,15,453,raby,target,64,41,0.6095238095238096,NA,1,NA,1,NA,1,1066.6666666666667,1066.6666666666667,2133.3333333333335,-10
783_swingley_aslin_2002_15,39,opal,15,453,opal,target,49,33,0.5975609756097561,NA,1,NA,0,NA,1,816.6666666666667,816.6666666666667,1633.3333333333335,-10
783_swingley_aslin_2002_15,41,raby,15,453,raby,target,106,0,1,NA,1,NA,1,NA,0,1766.6666666666667,1766.6666666666667,3533.3333333333335,-10
784_swingley_aslin_2002_15,47,raby,15,454,raby,target,60,45,0.5714285714285714,NA,1,NA,1,NA,1,1000.0000000000001,1000.0000000000001,2000.0000000000002,-10
784_swingley_aslin_2002_15,55,shawl,15,454,shawl,target,37,67,0.3557692307692308,NA,2,NA,0,NA,2,308.33333333333337,200,833.3333333333334,-10
784_swingley_aslin_2002_15,61,raby,15,454,raby,target,44,61,0.41904761904761906,NA,1,NA,0,NA,1,733.3333333333334,733.3333333333334,1466.6666666666667,-10
785_swingley_aslin_2002_14,45,opal,14,455,opal,target,39,65,0.375,NA,1,NA,0,NA,1,650,650,1300,-11
785_swingley_aslin_2002_14,46,yitty,14,455,yitty,target,87,16,0.8446601941747572,NA,2,NA,0,NA,2,725,350,2200,-11
785_swingley_aslin_2002_14,50,shawl,14,455,shawl,target,62,41,0.6019417475728155,NA,2,NA,0,NA,2,516.6666666666667,516.6666666666667,1033.3333333333335,-11
785_swingley_aslin_2002_14,52,shawl,14,455,shawl,target,68,33,0.6732673267326733,NA,2,NA,0,NA,2,566.6666666666667,616.6666666666667,1233.3333333333335,-11
785_swingley_aslin_2002_14,53,raby,14,455,raby,target,68,34,0.6666666666666666,NA,1,NA,0,NA,1,1050,1050,2100,-11
785_swingley_aslin_2002_14,56,yitty,14,455,yitty,target,91,0,1,NA,1,NA,1,NA,0,1516.6666666666667,1516.6666666666667,3033.3333333333335,-11
786_swingley_aslin_2002_15,35,kier,15,456,kier,target,30,69,0.30303030303030304,NA,1,NA,0,NA,2,266.6666666666667,266.6666666666667,533.3333333333334,-10
786_swingley_aslin_2002_15,37,raby,15,456,raby,target,28,76,0.2692307692307692,NA,1,NA,0,NA,1,466.6666666666667,466.6666666666667,933.3333333333334,-10
786_swingley_aslin_2002_15,38,shawl,15,456,shawl,target,78,18,0.8125,NA,2,NA,0,NA,2,650.0000000000001,266.6666666666667,2066.666666666667,-10
786_swingley_aslin_2002_15,39,opal,15,456,opal,target,84,18,0.8235294117647058,NA,2,NA,0,NA,2,700,350,2100,-10
786_swingley_aslin_2002_15,44,yitty,15,456,yitty,target,50,51,0.49504950495049505,NA,2,NA,0,NA,2,416.6666666666667,550,1100,-10
786_swingley_aslin_2002_15,45,opal,15,456,opal,target,82,23,0.780952380952381,NA,1,NA,1,NA,1,1200,1200,2400,-10
787_swingley_aslin_2002_14,54,opal,14,457,opal,target,82,21,0.7961165048543689,NA,2,NA,0,NA,2,683.3333333333334,416.6666666666667,1900.0000000000002,-11
787_swingley_aslin_2002_14,55,shawl,14,457,shawl,target,45,56,0.44554455445544555,NA,2,NA,0,NA,2,375,216.66666666666669,1066.6666666666667,-11
787_swingley_aslin_2002_14,56,raby,14,457,raby,target,76,27,0.7378640776699029,NA,2,NA,0,NA,2,633.3333333333334,450.00000000000006,1633.3333333333335,-11
787_swingley_aslin_2002_14,59,yitty,14,457,yitty,target,56,30,0.6511627906976745,NA,2,NA,0,NA,2,416.66666666666674,516.6666666666667,1033.3333333333335,-11
788_swingley_aslin_2002_15,50,mog,15,458,mog,target,74,30,0.7115384615384616,NA,1,NA,1,NA,1,1200,1200,2400,-10
788_swingley_aslin_2002_15,51,kier,15,458,kier,target,4,101,0.0380952380952381,NA,NA,NA,0,NA,0,NA,NA,NA,-10
788_swingley_aslin_2002_15,52,raby,15,458,raby,target,68,34,0.6666666666666666,NA,1,NA,0,NA,1,1116.6666666666667,1116.6666666666667,2233.3333333333335,-10
788_swingley_aslin_2002_15,53,shawl,15,458,shawl,target,106,0,1,NA,1,NA,1,NA,0,1766.6666666666667,1766.6666666666667,3533.3333333333335,-10
788_swingley_aslin_2002_15,54,opal,15,458,opal,target,73,31,0.7019230769230769,NA,1,NA,1,NA,1,1216.6666666666667,1216.6666666666667,2433.3333333333335,-10
788_swingley_aslin_2002_15,55,shawl,15,458,shawl,target,73,31,0.7019230769230769,NA,1,NA,1,NA,1,1216.6666666666667,1216.6666666666667,2433.3333333333335,-10
788_swingley_aslin_2002_15,56,raby,15,458,raby,target,106,0,1,NA,1,NA,1,NA,0,1766.6666666666667,1766.6666666666667,3533.3333333333335,-10
789_swingley_aslin_2002_15,48,kier,15,459,kier,target,61,42,0.5922330097087378,NA,2,NA,0,NA,2,508.33333333333337,600,1200,-10
789_swingley_aslin_2002_15,50,shawl,15,459,shawl,target,66,35,0.6534653465346535,NA,2,NA,0,NA,2,550,616.6666666666667,1233.3333333333335,-10
790_swingley_aslin_2002_15,95,gall,15,460,gall,target,64,41,0.6095238095238096,NA,1,NA,1,NA,1,1066.6666666666667,1066.6666666666667,2133.3333333333335,-10
790_swingley_aslin_2002_15,102,tog,15,460,tog,target,77,25,0.7549019607843137,NA,2,NA,0,NA,2,641.6666666666667,583.3333333333334,1400,-10
791_swingley_aslin_2002_14,6,tog,14,461,tog,target,41,62,0.39805825242718446,NA,1,NA,0,NA,1,683.3333333333334,683.3333333333334,1366.6666666666667,-11
791_swingley_aslin_2002_14,8,vaby,14,461,vaby,target,106,0,1,NA,1,NA,1,NA,0,1766.6666666666667,1766.6666666666667,3533.3333333333335,-11
791_swingley_aslin_2002_14,9,gall,14,461,gall,target,84,18,0.8235294117647058,NA,2,NA,0,NA,2,700,616.6666666666667,1566.6666666666667,-11
791_swingley_aslin_2002_14,12,opple,14,461,opple,target,76,29,0.7238095238095238,NA,1,NA,1,NA,1,1266.6666666666667,1266.6666666666667,2533.3333333333335,-11
791_swingley_aslin_2002_14,14,cur,14,461,cur,target,72,0,1,NA,1,NA,1,NA,0,1200,1200,2400,-11
791_swingley_aslin_2002_14,20,tog,14,461,tog,target,83,22,0.7904761904761904,NA,1,NA,1,NA,1,1383.3333333333335,1383.3333333333335,2766.666666666667,-11
792_swingley_aslin_2002_14,3,pity,14,462,pity,target,77,27,0.7403846153846154,NA,1,NA,1,NA,1,1200,1200,2400,-11
792_swingley_aslin_2002_14,9,cur,14,462,cur,target,78,25,0.7572815533980582,NA,2,NA,0,NA,2,650,650,1300,-11
792_swingley_aslin_2002_14,10,vaby,14,462,vaby,target,106,0,1,NA,1,NA,1,NA,0,1766.6666666666667,1766.6666666666667,3533.3333333333335,-11
792_swingley_aslin_2002_14,13,opple,14,462,opple,target,84,20,0.8076923076923077,NA,2,NA,0,NA,2,700,583.3333333333334,1633.3333333333335,-11
792_swingley_aslin_2002_14,17,gall,14,462,gall,target,80,20,0.8,NA,2,NA,0,NA,2,666.6666666666667,550,1566.6666666666667,-11
792_swingley_aslin_2002_14,20,tog,14,462,tog,target,106,0,1,NA,1,NA,1,NA,0,1766.6666666666667,1766.6666666666667,3533.3333333333335,-11
793_swingley_aslin_2002_15,2,opple,15,463,opple,target,52,49,0.5148514851485149,NA,1,NA,0,NA,1,866.6666666666667,866.6666666666667,1733.3333333333335,-10
793_swingley_aslin_2002_15,5,tog,15,463,tog,target,47,54,0.46534653465346537,NA,1,NA,0,NA,1,783.3333333333334,783.3333333333334,1566.6666666666667,-10
793_swingley_aslin_2002_15,9,cur,15,463,cur,target,106,0,1,NA,1,NA,1,NA,0,1766.6666666666667,1766.6666666666667,3533.3333333333335,-10
793_swingley_aslin_2002_15,18,vaby,15,463,vaby,target,74,27,0.7326732673267327,NA,2,NA,0,NA,2,616.6666666666667,850.0000000000001,1700.0000000000002,-10
794_swingley_aslin_2002_15,21,cur,15,464,cur,target,106,0,1,NA,1,NA,1,NA,0,1766.6666666666667,1766.6666666666667,3533.3333333333335,-10
794_swingley_aslin_2002_15,131,cur,15,464,cur,target,106,0,1,NA,1,NA,1,NA,0,1766.6666666666667,1766.6666666666667,3533.3333333333335,-10
794_swingley_aslin_2002_15,133,tog,15,464,tog,target,38,64,0.37254901960784315,NA,2,NA,0,NA,2,316.6666666666667,250.00000000000003,766.6666666666667,-10
794_swingley_aslin_2002_15,134,opple,15,464,opple,target,37,67,0.3557692307692308,NA,1,NA,0,NA,1,616.6666666666667,616.6666666666667,1233.3333333333335,-10
794_swingley_aslin_2002_15,139,vaby,15,464,vaby,target,65,35,0.65,NA,2,NA,0,NA,3,541.6666666666667,533.3333333333334,1100,-10
795_swingley_aslin_2002_15,133,tog,15,465,tog,target,91,10,0.900990099009901,NA,1,NA,0,NA,0,1366.6666666666667,1366.6666666666667,2733.3333333333335,-10
795_swingley_aslin_2002_15,138,pity,15,465,pity,target,33,71,0.3173076923076923,NA,1,NA,0,NA,1,550,550,1100,-10
795_swingley_aslin_2002_15,139,vaby,15,465,vaby,target,78,26,0.75,NA,2,NA,0,NA,2,650,600,1400,-10
796_swingley_aslin_2002_15,1,pity,15,466,pity,target,74,28,0.7254901960784313,NA,1,NA,1,NA,1,1183.3333333333335,1183.3333333333335,2366.666666666667,-10
796_swingley_aslin_2002_15,131,cur,15,466,cur,target,75,28,0.7281553398058253,NA,2,NA,1,NA,2,625.0000000000001,1000.0000000000001,2000.0000000000002,-10
796_swingley_aslin_2002_15,133,tog,15,466,tog,target,67,38,0.638095238095238,NA,1,NA,1,NA,1,1116.6666666666667,1116.6666666666667,2233.3333333333335,-10
796_swingley_aslin_2002_15,137,tog,15,466,tog,target,106,0,1,NA,1,NA,1,NA,0,1766.6666666666667,1766.6666666666667,3533.3333333333335,-10
797_swingley_aslin_2002_14,5,tog,14,467,tog,target,79,26,0.7523809523809524,NA,1,NA,1,NA,1,1316.6666666666667,1316.6666666666667,2633.3333333333335,-11
797_swingley_aslin_2002_14,9,cur,14,467,cur,target,1,103,0.009615384615384616,NA,NA,NA,0,NA,0,NA,NA,NA,-11
797_swingley_aslin_2002_14,11,gall,14,467,gall,target,21,46,0.31343283582089554,NA,1,NA,0,NA,2,216.66666666666669,216.66666666666669,433.33333333333337,-11
797_swingley_aslin_2002_14,13,opple,14,467,opple,target,13,90,0.1262135922330097,NA,1,NA,0,NA,1,216.66666666666669,216.66666666666669,433.33333333333337,-11
797_swingley_aslin_2002_14,17,gall,14,467,gall,target,3,102,0.02857142857142857,NA,NA,NA,0,NA,0,NA,NA,NA,-11
797_swingley_aslin_2002_14,20,tog,14,467,tog,target,106,0,1,NA,1,NA,1,NA,0,1766.6666666666667,1766.6666666666667,3533.3333333333335,-11
798_swingley_aslin_2002_14,20,pity,14,468,pity,target,43,62,0.4095238095238095,NA,1,NA,0,NA,1,716.6666666666667,716.6666666666667,1433.3333333333335,-11
798_swingley_aslin_2002_14,95,gall,14,468,gall,target,33,69,0.3235294117647059,NA,1,NA,0,NA,2,550,550,1100,-11
798_swingley_aslin_2002_14,98,pity,14,468,pity,target,55,10,0.8461538461538461,NA,2,NA,1,NA,0,458.33333333333337,333.33333333333337,1166.6666666666667,-11
798_swingley_aslin_2002_14,99,tog,14,468,tog,target,57,47,0.5480769230769231,NA,1,NA,1,NA,1,950.0000000000001,950.0000000000001,1900.0000000000002,-11
798_swingley_aslin_2002_14,103,vaby,14,468,vaby,target,86,18,0.8269230769230769,NA,1,NA,1,NA,1,1266.6666666666667,1266.6666666666667,2533.3333333333335,-11
799_swingley_aslin_2002_14,132,vaby,14,469,vaby,target,91,15,0.8584905660377359,NA,1,NA,1,NA,1,1516.6666666666667,1516.6666666666667,3033.3333333333335,-11
800_swingley_aslin_2002_14,5,tog,14,470,tog,target,73,29,0.7156862745098039,NA,1,NA,0,NA,1,1216.6666666666667,1216.6666666666667,2433.3333333333335,-11
800_swingley_aslin_2002_14,10,vaby,14,470,vaby,target,57,46,0.5533980582524272,NA,2,NA,0,NA,2,475,733.3333333333334,1466.6666666666667,-11
800_swingley_aslin_2002_14,13,opple,14,470,opple,target,58,46,0.5576923076923077,NA,2,NA,0,NA,2,483.33333333333337,200,1533.3333333333335,-11
800_swingley_aslin_2002_14,20,tog,14,470,tog,target,106,0,1,NA,1,NA,1,NA,0,1766.6666666666667,1766.6666666666667,3533.3333333333335,-11
800_swingley_aslin_2002_14,25,pity,14,470,pity,target,76,27,0.7378640776699029,NA,1,NA,1,NA,1,1266.6666666666667,1266.6666666666667,2533.3333333333335,-11
801_swingley_aslin_2002_14,95,gall,14,471,gall,target,81,23,0.7788461538461539,NA,1,NA,1,NA,1,1350,1350,2700,-11
801_swingley_aslin_2002_14,97,vaby,14,471,vaby,target,40,65,0.38095238095238093,NA,1,NA,0,NA,1,666.6666666666667,666.6666666666667,1333.3333333333335,-11
801_swingley_aslin_2002_14,98,pity,14,471,pity,target,65,28,0.6989247311827957,NA,2,NA,0,NA,2,541.6666666666667,533.3333333333334,1100,-11
801_swingley_aslin_2002_14,99,tog,14,471,tog,target,73,31,0.7019230769230769,NA,1,NA,1,NA,1,1216.6666666666667,1216.6666666666667,2433.3333333333335,-11
801_swingley_aslin_2002_14,101,gall,14,471,gall,target,68,37,0.6476190476190476,NA,1,NA,1,NA,1,1133.3333333333335,1133.3333333333335,2266.666666666667,-11
801_swingley_aslin_2002_14,102,tog,14,471,tog,target,72,29,0.7128712871287128,NA,1,NA,1,NA,1,1016.6666666666667,1016.6666666666667,2033.3333333333335,-11
801_swingley_aslin_2002_14,119,cur,14,471,cur,target,73,31,0.7019230769230769,NA,2,NA,0,NA,2,608.3333333333334,666.6666666666667,1333.3333333333335,-11
802_swingley_aslin_2002_15,94,mog,15,472,mog,target,69,23,0.75,NA,1,NA,1,NA,1,1150,1150,2300,-10
802_swingley_aslin_2002_15,100,mog,15,472,mog,target,55,48,0.5339805825242718,NA,2,NA,0,NA,2,458.33333333333337,333.33333333333337,1166.6666666666667,-10
803_swingley_aslin_2002_15,46,shawl,15,473,shawl,target,33,64,0.3402061855670103,NA,1,NA,0,NA,1,466.6666666666667,466.6666666666667,933.3333333333334,-10
803_swingley_aslin_2002_15,52,mog,15,473,mog,target,81,23,0.7788461538461539,NA,2,NA,0,NA,2,675,583.3333333333334,1533.3333333333335,-10
803_swingley_aslin_2002_15,59,mog,15,473,mog,target,65,39,0.625,NA,2,NA,0,NA,2,541.6666666666667,733.3333333333334,1466.6666666666667,-10
804_swingley_aslin_2002_14,92,raby,14,474,raby,target,106,0,1,NA,1,NA,1,NA,0,1766.6666666666667,1766.6666666666667,3533.3333333333335,-11
804_swingley_aslin_2002_14,94,mog,14,474,mog,target,106,0,1,NA,1,NA,1,NA,0,1766.6666666666667,1766.6666666666667,3533.3333333333335,-11
804_swingley_aslin_2002_14,100,mog,14,474,mog,target,67,39,0.6320754716981132,NA,1,NA,1,NA,1,1116.6666666666667,1116.6666666666667,2233.3333333333335,-11
804_swingley_aslin_2002_14,105,raby,14,474,raby,target,31,63,0.32978723404255317,NA,1,NA,0,NA,1,516.6666666666667,516.6666666666667,1033.3333333333335,-11
805_swingley_aslin_2002_15,3,cur,15,475,cur,target,38,61,0.3838383838383838,NA,2,NA,0,NA,3,316.6666666666667,200,866.6666666666667,-10
805_swingley_aslin_2002_15,6,tog,15,475,tog,target,65,37,0.6372549019607843,NA,1,NA,1,NA,1,1083.3333333333335,1083.3333333333335,2166.666666666667,-10
805_swingley_aslin_2002_15,8,vaby,15,475,vaby,target,65,38,0.6310679611650486,NA,1,NA,1,NA,1,1083.3333333333335,1083.3333333333335,2166.666666666667,-10
805_swingley_aslin_2002_15,17,vaby,15,475,vaby,target,87,17,0.8365384615384616,NA,1,NA,1,NA,1,1450,1450,2900,-10
805_swingley_aslin_2002_15,22,pity,15,475,pity,target,45,36,0.5555555555555556,NA,2,NA,0,NA,1,375.00000000000006,250.00000000000003,1000.0000000000001,-10
806_swingley_aslin_2002_15,4,tog,15,476,tog,target,61,43,0.5865384615384616,NA,1,NA,1,NA,1,1000.0000000000001,1000.0000000000001,2000.0000000000002,-10
806_swingley_aslin_2002_15,8,cur,15,476,cur,target,28,77,0.26666666666666666,NA,1,NA,0,NA,1,466.6666666666667,466.6666666666667,933.3333333333334,-10
806_swingley_aslin_2002_15,9,vaby,15,476,vaby,target,36,69,0.34285714285714286,NA,1,NA,0,NA,1,600,600,1200,-10
806_swingley_aslin_2002_15,12,opple,15,476,opple,target,37,30,0.5522388059701493,NA,1,NA,0,NA,1,616.6666666666667,616.6666666666667,1233.3333333333335,-10
806_swingley_aslin_2002_15,19,tog,15,476,tog,target,68,23,0.7472527472527473,NA,2,NA,0,NA,2,566.6666666666667,333.33333333333337,1600,-10
806_swingley_aslin_2002_15,22,cur,15,476,cur,target,43,22,0.6615384615384615,NA,1,NA,0,NA,1,650,650,1300,-10
807_swingley_aslin_2002_15,46,yitty,15,477,yitty,target,77,25,0.7549019607843137,NA,1,NA,1,NA,1,1283.3333333333335,1283.3333333333335,2566.666666666667,-10
807_swingley_aslin_2002_15,89,kier,15,477,kier,target,79,0,1,NA,1,NA,1,NA,0,1233.3333333333335,1233.3333333333335,2466.666666666667,-10
807_swingley_aslin_2002_15,94,mog,15,477,mog,target,106,0,1,NA,1,NA,1,NA,0,1766.6666666666667,1766.6666666666667,3533.3333333333335,-10
807_swingley_aslin_2002_15,97,shawl,15,477,shawl,target,47,50,0.4845360824742268,NA,2,NA,0,NA,3,391.66666666666674,283.33333333333337,1000.0000000000001,-10
807_swingley_aslin_2002_15,105,raby,15,477,raby,target,77,26,0.7475728155339806,NA,2,NA,0,NA,2,641.6666666666667,733.3333333333334,1466.6666666666667,-10
807_swingley_aslin_2002_15,108,opal,15,477,opal,target,40,58,0.40816326530612246,NA,1,NA,0,NA,1,516.6666666666667,516.6666666666667,1033.3333333333335,-10
808_swingley_aslin_2002_15,95,gall,15,478,gall,target,106,0,1,NA,1,NA,1,NA,0,1766.6666666666667,1766.6666666666667,3533.3333333333335,-10
808_swingley_aslin_2002_15,100,opple,15,478,opple,target,79,25,0.7596153846153846,NA,1,NA,1,NA,1,1316.6666666666667,1316.6666666666667,2633.3333333333335,-10
808_swingley_aslin_2002_15,101,gall,15,478,gall,target,106,0,1,NA,1,NA,1,NA,0,1766.6666666666667,1766.6666666666667,3533.3333333333335,-10
808_swingley_aslin_2002_15,102,tog,15,478,tog,target,106,0,1,NA,1,NA,1,NA,0,1766.6666666666667,1766.6666666666667,3533.3333333333335,-10
809_swingley_aslin_2002_14,6,tog,14,479,tog,target,43,60,0.4174757281553398,NA,1,NA,0,NA,1,716.6666666666667,716.6666666666667,1433.3333333333335,-11
809_swingley_aslin_2002_14,8,vaby,14,479,vaby,target,25,77,0.24509803921568626,NA,1,NA,0,NA,1,400,400,800,-11
809_swingley_aslin_2002_14,14,cur,14,479,cur,target,36,66,0.35294117647058826,NA,2,NA,0,NA,1,300,316.6666666666667,633.3333333333334,-11
809_swingley_aslin_2002_14,16,gall,14,479,gall,target,65,34,0.6565656565656566,NA,2,NA,0,NA,2,541.6666666666667,333.33333333333337,1500,-11
809_swingley_aslin_2002_14,20,tog,14,479,tog,target,72,31,0.6990291262135923,NA,1,NA,1,NA,1,1200,1200,2400,-11
809_swingley_aslin_2002_14,22,pity,14,479,pity,target,70,35,0.6666666666666666,NA,1,NA,0,NA,1,1166.6666666666667,1166.6666666666667,2333.3333333333335,-11
810_swingley_aslin_2002_14,1,pity,14,480,pity,target,77,27,0.7403846153846154,NA,2,NA,0,NA,2,641.6666666666667,866.6666666666667,1733.3333333333335,-11
810_swingley_aslin_2002_14,133,tog,14,480,tog,target,93,11,0.8942307692307693,NA,1,NA,1,NA,0,1550,1550,3100,-11
810_swingley_aslin_2002_14,134,opple,14,480,opple,target,21,83,0.20192307692307693,NA,1,NA,0,NA,1,350,350,700,-11
811_swingley_aslin_2002_14,131,cur,14,481,cur,target,76,26,0.7450980392156863,NA,2,NA,0,NA,2,633.3333333333334,783.3333333333334,1566.6666666666667,-11
811_swingley_aslin_2002_14,132,vaby,14,481,vaby,target,87,16,0.8446601941747572,NA,2,NA,0,NA,2,725,333.33333333333337,2233.3333333333335,-11
811_swingley_aslin_2002_14,137,tog,14,481,tog,target,73,31,0.7019230769230769,NA,1,NA,1,NA,1,1216.6666666666667,1216.6666666666667,2433.3333333333335,-11
811_swingley_aslin_2002_14,141,gall,14,481,gall,target,71,16,0.8160919540229885,NA,1,NA,1,NA,1,1000.0000000000001,1000.0000000000001,2000.0000000000002,-11
812_swingley_aslin_2002_15,46,shawl,15,482,shawl,target,59,42,0.5841584158415841,NA,2,NA,0,NA,2,491.66666666666674,316.6666666666667,1333.3333333333335,-10
812_swingley_aslin_2002_15,52,mog,15,482,mog,target,106,0,1,NA,1,NA,1,NA,0,1766.6666666666667,1766.6666666666667,3533.3333333333335,-10
812_swingley_aslin_2002_15,53,opal,15,482,opal,target,76,26,0.7450980392156863,NA,2,NA,0,NA,2,633.3333333333334,616.6666666666667,1300,-10
812_swingley_aslin_2002_15,58,opal,15,482,opal,target,31,67,0.3163265306122449,NA,2,NA,0,NA,2,258.33333333333337,216.66666666666669,600,-10
812_swingley_aslin_2002_15,63,kier,15,482,kier,target,39,63,0.38235294117647056,NA,2,NA,0,NA,3,325,350,700,-10
813_swingley_aslin_2002_14,3,pity,14,483,pity,target,68,34,0.6666666666666666,NA,2,NA,0,NA,2,566.6666666666667,483.33333333333337,1300,-11
813_swingley_aslin_2002_14,5,tog,14,483,tog,target,77,27,0.7403846153846154,NA,2,NA,0,NA,2,641.6666666666667,250.00000000000003,2066.666666666667,-11
813_swingley_aslin_2002_14,9,cur,14,483,cur,target,83,19,0.8137254901960784,NA,2,NA,0,NA,2,691.6666666666667,416.6666666666667,1933.3333333333335,-11
813_swingley_aslin_2002_14,11,gall,14,483,gall,target,22,81,0.21359223300970873,NA,NA,NA,0,NA,0,NA,NA,NA,-11
814_swingley_aslin_2002_14,3,pity,14,484,pity,target,106,0,1,NA,1,NA,1,NA,0,1766.6666666666667,1766.6666666666667,3533.3333333333335,-11
814_swingley_aslin_2002_14,10,vaby,14,484,vaby,target,84,22,0.7924528301886793,NA,1,NA,1,NA,1,1400,1400,2800,-11
814_swingley_aslin_2002_14,11,gall,14,484,gall,target,0,92,0,NA,NA,NA,0,NA,0,NA,NA,NA,-11
814_swingley_aslin_2002_14,13,opple,14,484,opple,target,88,17,0.8380952380952381,NA,1,NA,1,NA,1,1466.6666666666667,1466.6666666666667,2933.3333333333335,-11
815_swingley_aslin_2002_14,99,tog,14,485,tog,target,106,0,1,NA,1,NA,1,NA,0,1766.6666666666667,1766.6666666666667,3533.3333333333335,-11
815_swingley_aslin_2002_14,100,opple,14,485,opple,target,106,0,1,NA,1,NA,1,NA,0,1766.6666666666667,1766.6666666666667,3533.3333333333335,-11
816_swingley_aslin_2002_15,1,cur,15,486,cur,target,49,52,0.48514851485148514,NA,2,NA,0,NA,3,408.33333333333337,316.6666666666667,1000.0000000000001,-10
816_swingley_aslin_2002_15,98,pity,15,486,pity,target,34,68,0.3333333333333333,NA,1,NA,0,NA,2,383.33333333333337,383.33333333333337,766.6666666666667,-10
816_swingley_aslin_2002_15,100,opple,15,486,opple,target,40,58,0.40816326530612246,NA,1,NA,0,NA,2,483.33333333333337,483.33333333333337,966.6666666666667,-10
816_swingley_aslin_2002_15,102,tog,15,486,tog,target,51,49,0.51,NA,1,NA,0,NA,2,700,700,1400,-10
817_swingley_aslin_2002_14,35,kier,14,487,kier,target,59,42,0.5841584158415841,NA,2,NA,0,NA,2,491.6666666666667,250.00000000000003,1466.6666666666667,-11
817_swingley_aslin_2002_14,36,mog,14,487,mog,target,67,36,0.6504854368932039,NA,2,NA,0,NA,2,558.3333333333334,483.33333333333337,1266.6666666666667,-11
817_swingley_aslin_2002_14,37,raby,14,487,raby,target,45,59,0.4326923076923077,NA,1,NA,0,NA,1,750,750,1500,-11
817_swingley_aslin_2002_14,39,opal,14,487,opal,target,87,12,0.8787878787878788,NA,2,NA,0,NA,0,725,483.33333333333337,1933.3333333333335,-11
817_swingley_aslin_2002_14,43,mog,14,487,mog,target,50,52,0.49019607843137253,NA,1,NA,0,NA,1,700,700,1400,-11
817_swingley_aslin_2002_14,45,opal,14,487,opal,target,87,18,0.8285714285714286,NA,1,NA,1,NA,1,1450,1450,2900,-11
818_swingley_aslin_2002_14,33,kier,14,488,kier,target,42,61,0.4077669902912621,NA,2,NA,0,NA,3,350,466.6666666666667,933.3333333333334,-11
818_swingley_aslin_2002_14,47,raby,14,488,raby,target,35,68,0.33980582524271846,NA,1,NA,0,NA,1,400,400,800,-11
818_swingley_aslin_2002_14,51,yitty,14,488,yitty,target,14,90,0.1346153846153846,NA,1,NA,0,NA,1,233.33333333333334,233.33333333333334,466.6666666666667,-11
818_swingley_aslin_2002_14,52,mog,14,488,mog,target,99,6,0.9428571428571428,NA,1,NA,1,NA,0,1650.0000000000002,1650.0000000000002,3300.0000000000005,-11
818_swingley_aslin_2002_14,53,opal,14,488,opal,target,61,31,0.6630434782608695,NA,2,NA,1,NA,1,508.33333333333337,383.33333333333337,1266.6666666666667,-11
818_swingley_aslin_2002_14,58,opal,14,488,opal,target,36,69,0.34285714285714286,NA,1,NA,0,NA,1,600,600,1200,-11
818_swingley_aslin_2002_14,63,kier,14,488,kier,target,106,0,1,NA,1,NA,1,NA,0,1766.6666666666667,1766.6666666666667,3533.3333333333335,-11
1299_potter_remix_23,3,boca,23,969,mouth,target,6,65,0.08450704225352113,NA,NA,NA,0,NA,0,NA,NA,NA,-2
1299_potter_remix_23,6,puerta,23,969,door,target,65,13,0.8333333333333334,NA,1,NA,1,NA,1,933.3333333333334,933.3333333333334,1866.6666666666667,-2
1299_potter_remix_23,7,pie,23,969,foot,target,81,0,1,NA,1,NA,1,NA,0,1350,1350,2700,-2
1299_potter_remix_23,14,perro,23,969,dog,target,87,0,1,NA,1,NA,1,NA,0,1450,1450,2900,-2
1299_potter_remix_23,16,gato,23,969,kitty,target,96,0,1,NA,1,NA,1,NA,0,1600,1600,3200,-2
1300_potter_remix_20,2,boca,20,970,mouth,target,84,0,1,NA,1,NA,1,NA,0,1400,1400,2800,-5
1300_potter_remix_20,5,globo,20,970,balloon,target,46,43,0.5168539325842697,NA,2,NA,0,NA,2,383.33333333333337,550,1100,-5
1300_potter_remix_20,15,gato,20,970,kitty,target,67,0,1,NA,1,NA,1,NA,0,1116.6666666666667,1116.6666666666667,2233.3333333333335,-5
1300_potter_remix_20,16,galleta,20,970,cookie,target,85,0,1,NA,1,NA,1,NA,0,1416.6666666666667,1416.6666666666667,2833.3333333333335,-5
1301_potter_remix_22,6,door,22,971,door,target,79,0,1,NA,1,NA,1,NA,0,1316.6666666666667,1316.6666666666667,2633.3333333333335,-3
1301_potter_remix_22,14,dog,22,971,dog,target,91,0,1,NA,1,NA,1,NA,0,1516.6666666666667,1516.6666666666667,3033.3333333333335,-3
1302_potter_remix_28,2,mouth,28,972,mouth,target,97,0,1,NA,1,NA,1,NA,0,1616.6666666666667,1616.6666666666667,3233.3333333333335,3
1302_potter_remix_28,9,dog,28,972,dog,target,103,0,1,NA,1,NA,1,NA,0,1716.6666666666667,1716.6666666666667,3433.3333333333335,3
1302_potter_remix_28,15,kitty,28,972,kitty,target,80,9,0.898876404494382,NA,1,NA,1,NA,0,1333.3333333333335,1333.3333333333335,2666.666666666667,3
1302_potter_remix_28,16,cookie,28,972,cookie,target,83,6,0.9325842696629213,NA,1,NA,1,NA,0,1383.3333333333335,1383.3333333333335,2766.666666666667,3
1303_potter_remix_25,4,globo,25,973,balloon,target,43,24,0.6417910447761194,NA,1,NA,0,NA,1,716.6666666666667,716.6666666666667,1433.3333333333335,0
1304_potter_remix_27,2,boca,27,974,mouth,target,34,24,0.5862068965517241,NA,1,NA,0,NA,1,550,550,1100,2
1304_potter_remix_27,4,puerta,27,974,door,target,17,77,0.18085106382978725,NA,1,NA,0,NA,1,283.33333333333337,283.33333333333337,566.6666666666667,2
1304_potter_remix_27,9,perro,27,974,dog,target,33,67,0.33,NA,1,NA,0,NA,1,550,550,1100,2
1304_potter_remix_27,12,leche,27,974,milk,target,47,24,0.6619718309859155,NA,1,NA,0,NA,1,783.3333333333334,783.3333333333334,1566.6666666666667,2
1304_potter_remix_27,16,galleta,27,974,cookie,target,31,38,0.4492753623188406,NA,2,NA,0,NA,2,258.33333333333337,283.33333333333337,566.6666666666667,2
1305_potter_remix_19,4,balloon,19,975,balloon,target,51,38,0.5730337078651685,0.4811320754716981,1,NA,0,NA,1,850.0000000000001,850.0000000000001,1700.0000000000002,-6
1305_potter_remix_19,6,door,19,975,door,target,65,0,1,0.6132075471698113,1,NA,1,NA,0,1083.3333333333335,1083.3333333333335,2166.666666666667,-6
1305_potter_remix_19,7,foot,19,975,foot,target,79,0,1,NA,1,NA,1,NA,0,1316.6666666666667,1316.6666666666667,2633.3333333333335,-6
1305_potter_remix_19,9,cookie,19,975,cookie,target,97,0,1,0.9150943396226415,1,NA,1,NA,0,1616.6666666666667,1616.6666666666667,3233.3333333333335,-6
1305_potter_remix_19,10,milk,19,975,milk,target,96,0,1,NA,1,NA,1,NA,0,1600,1600,3200,-6
1305_potter_remix_19,14,dog,19,975,dog,target,71,0,1,0.3113207547169811,1,NA,1,NA,0,1183.3333333333335,1183.3333333333335,2366.666666666667,-6
1306_potter_remix_29,4,balloon,29,976,balloon,target,56,11,0.835820895522388,NA,1,NA,0,NA,0,933.3333333333334,933.3333333333334,1866.6666666666667,4
1306_potter_remix_29,9,cookie,29,976,cookie,target,71,25,0.7395833333333334,NA,2,NA,0,NA,2,591.6666666666667,683.3333333333334,1366.6666666666667,4
1306_potter_remix_29,10,milk,29,976,milk,target,55,0,1,NA,1,NA,1,NA,0,916.6666666666667,916.6666666666667,1833.3333333333335,4
1306_potter_remix_29,16,kitty,29,976,kitty,target,90,0,1,NA,2,NA,1,NA,0,750.0000000000001,1083.3333333333335,2166.666666666667,4
1307_potter_remix_25,2,mouth,25,977,mouth,target,54,0,1,NA,2,NA,1,NA,0,450,400,1000.0000000000001,0
1307_potter_remix_25,5,balloon,25,977,balloon,target,71,31,0.696078431372549,0.5094339622641509,1,NA,0,NA,1,1100,1100,2200,0
1307_potter_remix_25,9,dog,25,977,dog,target,55,17,0.7638888888888888,0.22641509433962265,1,NA,0,NA,1,783.3333333333334,783.3333333333334,1566.6666666666667,0
1307_potter_remix_25,16,cookie,25,977,cookie,target,73,13,0.8488372093023255,NA,1,NA,1,NA,1,1216.6666666666667,1216.6666666666667,2433.3333333333335,0
1308_potter_remix_25,3,mouth,25,978,mouth,target,90,0,1,0.20754716981132082,2,NA,1,NA,0,750,866.6666666666667,1733.3333333333335,0
1308_potter_remix_25,4,balloon,25,978,balloon,target,57,42,0.5757575757575758,0.37735849056603776,2,NA,0,NA,2,475,466.6666666666667,966.6666666666667,0
1308_potter_remix_25,9,cookie,25,978,cookie,target,82,21,0.7961165048543689,NA,1,NA,0,NA,1,1316.6666666666667,1316.6666666666667,2633.3333333333335,0
1308_potter_remix_25,10,milk,25,978,milk,target,26,68,0.2765957446808511,0.24528301886792453,1,NA,0,NA,2,350,350,700,0
1308_potter_remix_25,14,dog,25,978,dog,target,88,17,0.8380952380952381,0.4339622641509434,1,NA,1,NA,1,1466.6666666666667,1466.6666666666667,2933.3333333333335,0
1309_potter_remix_18,9,perro,18,979,dog,target,67,35,0.6568627450980392,NA,2,NA,0,NA,2,558.3333333333334,266.6666666666667,1700.0000000000002,-7
1309_potter_remix_18,15,gato,18,979,kitty,target,60,44,0.5769230769230769,NA,2,NA,0,NA,2,500.00000000000006,516.6666666666667,1033.3333333333335,-7
1309_potter_remix_18,16,galleta,18,979,cookie,target,48,57,0.45714285714285713,NA,1,NA,0,NA,1,800,800,1600,-7
1310_potter_remix_21,7,foot,21,980,foot,target,5,89,0.05319148936170213,0.04716981132075472,NA,NA,0,NA,0,NA,NA,NA,-4
1310_potter_remix_21,14,dog,21,980,dog,target,29,29,0.5,NA,1,NA,0,NA,1,483.33333333333337,483.33333333333337,966.6666666666667,-4
1310_potter_remix_21,16,kitty,21,980,kitty,target,106,0,1,0.160377358490566,1,NA,1,NA,0,1766.6666666666667,1766.6666666666667,3533.3333333333335,-4
1311_potter_remix_23,6,foot,23,981,foot,target,39,57,0.40625,NA,1,NA,0,NA,1,583.3333333333334,583.3333333333334,1166.6666666666667,-2
1311_potter_remix_23,16,cookie,23,981,cookie,target,92,0,1,NA,1,NA,1,NA,0,1533.3333333333335,1533.3333333333335,3066.666666666667,-2
1312_potter_remix_28,7,pie,28,982,foot,target,36,46,0.43902439024390244,NA,1,NA,0,NA,1,600,600,1200,3
1312_potter_remix_28,10,leche,28,982,milk,target,55,28,0.6626506024096386,NA,1,NA,0,NA,1,916.6666666666667,916.6666666666667,1833.3333333333335,3
1312_potter_remix_28,14,perro,28,982,dog,target,75,0,1,NA,1,NA,1,NA,0,1250,1250,2500,3
1313_potter_remix_21,9,perro,21,983,dog,target,57,15,0.7916666666666666,NA,1,NA,1,NA,1,950.0000000000001,950.0000000000001,1900.0000000000002,-4
1314_potter_remix_26,2,mouth,26,984,mouth,target,63,17,0.7875,NA,1,NA,1,NA,1,1050,1050,2100,1
1314_potter_remix_26,5,balloon,26,984,balloon,target,33,71,0.3173076923076923,-0.2169811320754717,1,NA,0,NA,1,366.6666666666667,366.6666666666667,733.3333333333334,1
1314_potter_remix_26,9,dog,26,984,dog,target,24,56,0.3,-0.4433962264150943,1,NA,0,NA,1,400,400,800,1
1314_potter_remix_26,16,cookie,26,984,cookie,target,80,21,0.7920792079207921,NA,1,NA,0,NA,1,1283.3333333333335,1283.3333333333335,2566.666666666667,1
1315_potter_remix_19,2,boca,19,985,mouth,target,106,0,1,NA,1,NA,1,NA,0,1766.6666666666667,1766.6666666666667,3533.3333333333335,-6
1315_potter_remix_19,6,pie,19,985,foot,target,103,0,1,NA,1,NA,1,NA,0,1716.6666666666667,1716.6666666666667,3433.3333333333335,-6
1315_potter_remix_19,15,gato,19,985,kitty,target,29,64,0.3118279569892473,NA,1,NA,0,NA,1,316.6666666666667,316.6666666666667,633.3333333333334,-6
1316_potter_remix_18,3,mouth,18,986,mouth,target,80,0,1,0.7547169811320755,1,NA,1,NA,0,1333.3333333333335,1333.3333333333335,2666.666666666667,-7
1316_potter_remix_18,7,foot,18,986,foot,target,5,85,0.05555555555555555,NA,NA,NA,0,NA,0,NA,NA,NA,-7
1316_potter_remix_18,10,milk,18,986,milk,target,88,0,1,0.8301886792452831,1,NA,1,NA,0,1466.6666666666667,1466.6666666666667,2933.3333333333335,-7
1316_potter_remix_18,14,dog,18,986,dog,target,95,0,1,NA,1,NA,1,NA,0,1583.3333333333335,1583.3333333333335,3166.666666666667,-7
1317_potter_remix_20,2,mouth,20,987,mouth,target,92,0,1,NA,1,NA,1,NA,0,1533.3333333333335,1533.3333333333335,3066.666666666667,-5
1317_potter_remix_20,4,door,20,987,door,target,16,72,0.18181818181818182,NA,1,NA,0,NA,1,266.6666666666667,266.6666666666667,533.3333333333334,-5
1317_potter_remix_20,5,balloon,20,987,balloon,target,72,28,0.72,NA,1,NA,1,NA,1,1200,1200,2400,-5
1318_potter_remix_19,9,perro,19,988,dog,target,77,15,0.8369565217391305,NA,1,NA,1,NA,1,1283.3333333333335,1283.3333333333335,2566.666666666667,-6
1318_potter_remix_19,12,leche,19,988,milk,target,104,0,1,NA,1,NA,1,NA,0,1733.3333333333335,1733.3333333333335,3466.666666666667,-6
1319_potter_remix_20,3,mouth,20,989,mouth,target,43,39,0.524390243902439,NA,1,NA,0,NA,1,716.6666666666667,716.6666666666667,1433.3333333333335,-5
1319_potter_remix_20,7,foot,20,989,foot,target,57,14,0.8028169014084507,NA,1,NA,1,NA,1,950.0000000000001,950.0000000000001,1900.0000000000002,-5
1320_potter_remix_18,9,dog,18,990,dog,target,105,0,1,NA,1,NA,1,NA,0,1750.0000000000002,1750.0000000000002,3500.0000000000005,-7
1320_potter_remix_18,12,milk,18,990,milk,target,88,0,1,NA,2,NA,1,NA,0,733.3333333333334,733.3333333333334,1466.6666666666667,-7
1321_potter_remix_26,6,foot,26,991,foot,target,66,30,0.6875,NA,2,NA,0,NA,2,550,583.3333333333334,1166.6666666666667,1
1321_potter_remix_26,9,dog,26,991,dog,target,37,37,0.5,NA,1,NA,0,NA,1,616.6666666666667,616.6666666666667,1233.3333333333335,1
1321_potter_remix_26,12,milk,26,991,milk,target,104,0,1,NA,1,NA,1,NA,0,1733.3333333333335,1733.3333333333335,3466.666666666667,1
1321_potter_remix_26,16,cookie,26,991,cookie,target,95,0,1,NA,1,NA,1,NA,0,1583.3333333333335,1583.3333333333335,3166.666666666667,1
1322_potter_remix_23,6,foot,23,992,foot,target,87,12,0.8787878787878788,NA,1,NA,0,NA,1,1450,1450,2900,-2
1322_potter_remix_23,9,dog,23,992,dog,target,104,0,1,NA,1,NA,1,NA,0,1733.3333333333335,1733.3333333333335,3466.666666666667,-2
1322_potter_remix_23,16,cookie,23,992,cookie,target,62,22,0.7380952380952381,NA,2,NA,0,NA,2,516.6666666666667,650,1300,-2
1323_potter_remix_20,3,mouth,20,993,mouth,target,65,4,0.9420289855072463,0.6132075471698113,1,NA,1,NA,0,1083.3333333333335,1083.3333333333335,2166.666666666667,-5
1323_potter_remix_20,4,balloon,20,993,balloon,target,96,0,1,0.9056603773584906,1,NA,1,NA,0,1600,1600,3200,-5
1323_potter_remix_20,9,cookie,20,993,cookie,target,88,9,0.9072164948453608,NA,1,NA,1,NA,0,1466.6666666666667,1466.6666666666667,2933.3333333333335,-5
1323_potter_remix_20,10,milk,20,993,milk,target,93,0,1,0.839622641509434,1,NA,1,NA,0,1550,1550,3100,-5
1323_potter_remix_20,14,dog,20,993,dog,target,77,0,1,0.7264150943396226,1,NA,1,NA,0,1283.3333333333335,1283.3333333333335,2566.666666666667,-5
1324_potter_remix_22,6,pie,22,994,foot,target,85,0,1,NA,1,NA,1,NA,0,1416.6666666666667,1416.6666666666667,2833.3333333333335,-3
1324_potter_remix_22,9,perro,22,994,dog,target,25,72,0.25773195876288657,NA,1,NA,0,NA,1,416.6666666666667,416.6666666666667,833.3333333333334,-3
1324_potter_remix_22,16,galleta,22,994,cookie,target,80,0,1,NA,1,NA,1,NA,0,1333.3333333333335,1333.3333333333335,2666.666666666667,-3
1325_potter_remix_28,4,globo,28,995,balloon,target,85,0,1,NA,1,NA,1,NA,0,1416.6666666666667,1416.6666666666667,2833.3333333333335,3
1325_potter_remix_28,7,pie,28,995,foot,target,81,0,1,NA,1,NA,1,NA,0,1350,1350,2700,3
1327_potter_remix_27,4,balloon,27,997,balloon,target,73,17,0.8111111111111111,NA,1,NA,1,NA,1,1216.6666666666667,1216.6666666666667,2433.3333333333335,2
1328_potter_remix_19,3,puerta,19,998,door,target,93,0,1,NA,1,NA,1,NA,0,1550,1550,3100,-6
1328_potter_remix_19,8,perro,19,998,dog,target,100,0,1,NA,1,NA,1,NA,0,1666.6666666666667,1666.6666666666667,3333.3333333333335,-6
1329_potter_remix_29,2,boca,29,999,mouth,target,71,32,0.6893203883495146,NA,1,NA,1,NA,1,1183.3333333333335,1183.3333333333335,2366.666666666667,4
1329_potter_remix_29,6,pie,29,999,foot,target,97,0,1,NA,1,NA,1,NA,0,1550,1550,3100,4
1329_potter_remix_29,9,perro,29,999,dog,target,64,39,0.6213592233009708,NA,1,NA,1,NA,1,1066.6666666666667,1066.6666666666667,2133.3333333333335,4
1329_potter_remix_29,15,gato,29,999,kitty,target,88,0,1,NA,2,NA,1,NA,0,733.3333333333334,666.6666666666667,1600,4
1329_potter_remix_29,16,galleta,29,999,cookie,target,106,0,1,NA,1,NA,1,NA,0,1766.6666666666667,1766.6666666666667,3533.3333333333335,4
1330_potter_remix_25,10,leche,25,1000,milk,target,72,30,0.7058823529411765,NA,1,NA,0,NA,1,1016.6666666666667,1016.6666666666667,2033.3333333333335,0
1331_potter_remix_25,2,boca,25,1001,mouth,target,104,0,1,NA,1,NA,1,NA,0,1733.3333333333335,1733.3333333333335,3466.666666666667,0
1331_potter_remix_25,6,pie,25,1001,foot,target,19,79,0.19387755102040816,NA,1,NA,0,NA,2,316.6666666666667,316.6666666666667,633.3333333333334,0
1333_potter_remix_23,6,puerta,23,1003,door,target,87,0,1,NA,1,NA,1,NA,0,1450,1450,2900,-2
1333_potter_remix_23,9,galleta,23,1003,cookie,target,100,0,1,NA,1,NA,1,NA,0,1666.6666666666667,1666.6666666666667,3333.3333333333335,-2
1333_potter_remix_23,16,gato,23,1003,kitty,target,93,0,1,NA,1,NA,1,NA,0,1550,1550,3100,-2
1334_potter_remix_21,7,foot,21,1004,foot,target,88,12,0.88,NA,1,NA,1,NA,1,1466.6666666666667,1466.6666666666667,2933.3333333333335,-4
1334_potter_remix_21,9,cookie,21,1004,cookie,target,89,4,0.956989247311828,NA,1,NA,1,NA,0,1483.3333333333335,1483.3333333333335,2966.666666666667,-4
1334_potter_remix_21,10,milk,21,1004,milk,target,92,0,1,NA,1,NA,1,NA,0,1533.3333333333335,1533.3333333333335,3066.666666666667,-4
1335_potter_remix_26,3,boca,26,1005,mouth,target,106,0,1,NA,1,NA,1,NA,0,1766.6666666666667,1766.6666666666667,3533.3333333333335,1
1335_potter_remix_26,6,puerta,26,1005,door,target,65,36,0.6435643564356436,NA,1,NA,0,NA,1,1016.6666666666667,1016.6666666666667,2033.3333333333335,1
1335_potter_remix_26,16,gato,26,1005,kitty,target,80,21,0.7920792079207921,NA,2,NA,0,NA,2,666.6666666666667,616.6666666666667,1433.3333333333335,1
1336_potter_remix_19,1,mouth,19,1006,mouth,target,26,46,0.3611111111111111,NA,1,NA,0,NA,1,350,350,700,-6
1336_potter_remix_19,4,balloon,19,1006,balloon,target,75,30,0.7142857142857143,NA,1,NA,1,NA,1,1250,1250,2500,-6
1336_potter_remix_19,5,foot,19,1006,foot,target,36,69,0.34285714285714286,NA,1,NA,0,NA,1,600,600,1200,-6
1337_potter_remix_18,4,puerta,18,1007,door,target,57,0,1,NA,1,NA,1,NA,0,950.0000000000001,950.0000000000001,1900.0000000000002,-7
1337_potter_remix_18,12,leche,18,1007,milk,target,73,0,1,NA,1,NA,1,NA,0,1216.6666666666667,1216.6666666666667,2433.3333333333335,-7
1338_potter_remix_20,7,pie,20,1008,foot,target,60,14,0.8108108108108109,NA,1,NA,1,NA,1,1000.0000000000001,1000.0000000000001,2000.0000000000002,-5
1338_potter_remix_20,14,perro,20,1008,dog,target,71,0,1,NA,1,NA,1,NA,0,1183.3333333333335,1183.3333333333335,2366.666666666667,-5
1339_potter_remix_19,3,mouth,19,1009,mouth,target,40,39,0.5063291139240507,0.37735849056603776,1,NA,0,NA,1,666.6666666666667,666.6666666666667,1333.3333333333335,-6
1339_potter_remix_19,4,balloon,19,1009,balloon,target,72,21,0.7741935483870968,NA,2,NA,0,NA,2,600,383.33333333333337,1633.3333333333335,-6
1339_potter_remix_19,9,cookie,19,1009,cookie,target,72,19,0.7912087912087912,NA,2,NA,0,NA,2,600,550,1300,-6
1339_potter_remix_19,10,milk,19,1009,milk,target,93,0,1,0.509433962264151,1,NA,1,NA,0,1550,1550,3100,-6
1341_potter_remix_18,3,boca,18,1011,mouth,target,83,0,1,NA,1,NA,1,NA,0,1383.3333333333335,1383.3333333333335,2766.666666666667,-7
1341_potter_remix_18,7,pie,18,1011,foot,target,87,0,1,NA,1,NA,1,NA,0,1450,1450,2900,-7
1341_potter_remix_18,16,gato,18,1011,kitty,target,101,0,1,NA,1,NA,1,NA,0,1683.3333333333335,1683.3333333333335,3366.666666666667,-7
1342_potter_remix_26,4,globo,26,1012,balloon,target,92,0,1,NA,1,NA,1,NA,0,1533.3333333333335,1533.3333333333335,3066.666666666667,1
1342_potter_remix_26,6,puerta,26,1012,door,target,51,17,0.75,NA,1,NA,0,NA,1,766.6666666666667,766.6666666666667,1533.3333333333335,1
1342_potter_remix_26,14,perro,26,1012,dog,target,85,0,1,NA,1,NA,1,NA,0,1416.6666666666667,1416.6666666666667,2833.3333333333335,1
1342_potter_remix_26,16,gato,26,1012,kitty,target,29,33,0.46774193548387094,NA,1,NA,0,NA,1,483.33333333333337,483.33333333333337,966.6666666666667,1
1803_garrison_bergelson_2020_17,1,kitty,17,1413,kitty,target,51,55,0.4811320754716981,0.09905660377358488,2,NA,0,NA,3,425,250.00000000000003,72,-8
1803_garrison_bergelson_2020_17,4,puppy,17,1413,puppy,target,65,41,0.6132075471698113,0.09905660377358494,1,NA,1,NA,1,1083.3333333333335,1083.3333333333335,130,-8
1803_garrison_bergelson_2020_17,6,highchair,17,1413,highchair,target,21,85,0.19811320754716982,0.0849056603773585,1,NA,0,NA,1,350,350,42,-8
1803_garrison_bergelson_2020_17,9,elephant,17,1413,elephant,target,46,60,0.4339622641509434,NA,1,NA,0,NA,1,766.6666666666667,766.6666666666667,92,-8
1803_garrison_bergelson_2020_17,11,baba,17,1413,baba,target,61,45,0.5754716981132075,0.5754716981132075,1,NA,1,NA,1,1016.6666666666667,1016.6666666666667,122,-8
1803_garrison_bergelson_2020_17,13,ball,17,1413,ball,target,99,7,0.9339622641509434,0.08490566037735847,1,NA,1,NA,0,1650.0000000000002,1650.0000000000002,198,-8
1803_garrison_bergelson_2020_17,17,shoe,17,1413,shoe,target,106,0,1,0.5754716981132075,1,NA,1,NA,0,1766.6666666666667,1766.6666666666667,212,-8
1803_garrison_bergelson_2020_17,21,puppy,17,1413,puppy,target,66,40,0.6226415094339622,0.09905660377358494,2,NA,0,NA,2,550,483.33333333333337,74,-8
1803_garrison_bergelson_2020_17,26,ball,17,1413,ball,target,89,17,0.839622641509434,0.08490566037735847,2,NA,1,NA,2,741.6666666666667,1200,144,-8
1804_garrison_bergelson_2020_16,1,shoe,16,1414,shoe,target,79,27,0.7452830188679245,NA,2,NA,0,NA,2,658.3333333333334,583.3333333333334,88,-9
1804_garrison_bergelson_2020_16,8,hat,16,1414,hat,target,56,50,0.5283018867924528,0.04716981132075476,1,NA,0,NA,1,833.3333333333334,833.3333333333334,100,-9
1804_garrison_bergelson_2020_16,13,water,16,1414,water,target,70,36,0.660377358490566,0.3113207547169811,2,NA,0,NA,2,583.3333333333334,333.33333333333337,100,-9
1804_garrison_bergelson_2020_16,15,ball,16,1414,ball,target,29,77,0.27358490566037735,0.009433962264150941,2,NA,0,NA,3,241.66666666666669,233.33333333333334,30,-9
1804_garrison_bergelson_2020_16,17,shoe,16,1414,shoe,target,76,30,0.71698113207547165,NA,2,NA,0,NA,2,633.3333333333334,800,96,-9
1804_garrison_bergelson_2020_16,20,hat,16,1414,hat,target,53,53,0.5,0.04716981132075476,1,NA,0,NA,1,800,800,96,-9
1804_garrison_bergelson_2020_16,22,sock,16,1414,sock,target,38,37,0.5066666666666667,0.018867924528301883,1,NA,0,NA,1,633.3333333333334,633.3333333333334,76,-9
1804_garrison_bergelson_2020_16,28,monkey,16,1414,monkey,target,80,26,0.7547169811320755,NA,1,NA,1,NA,1,1333.3333333333335,1333.3333333333335,160,-9
1804_garrison_bergelson_2020_16,30,ball,16,1414,ball,target,76,22,0.7755102040816326,0.009433962264150941,1,NA,1,NA,1,1266.6666666666667,1266.6666666666667,152,-9
1805_garrison_bergelson_2020_15,2,hat,15,1415,hat,target,41,65,0.3867924528301887,0.089622641509434,2,NA,0,NA,2,341.6666666666667,483.33333333333337,58,-10
1805_garrison_bergelson_2020_15,9,hat,15,1415,hat,target,48,58,0.4528301886792453,0.089622641509434,2,NA,0,NA,2,400,383.33333333333337,50,-10
1805_garrison_bergelson_2020_15,11,sippycup,15,1415,sippycup,target,18,88,0.16981132075471697,-0.5235849056603774,1,NA,0,NA,1,300,300,36,-10
1805_garrison_bergelson_2020_15,17,book,15,1415,book,target,21,85,0.19811320754716982,-0.5235849056603774,1,NA,0,NA,2,250.00000000000003,250.00000000000003,30,-10
1805_garrison_bergelson_2020_15,23,truck,15,1415,truck,target,71,35,0.6698113207547169,0.08962264150943389,2,NA,0,NA,2,591.6666666666667,633.3333333333334,76,-10
1805_garrison_bergelson_2020_15,28,ball,15,1415,ball,target,72,15,0.8275862068965517,NA,3,NA,0,NA,2,400,300,72,-10
1805_garrison_bergelson_2020_15,30,sippycup,15,1415,sippycup,target,41,65,0.3867924528301887,-0.5235849056603774,1,NA,0,NA,1,683.3333333333334,683.3333333333334,82,-10
1806_garrison_bergelson_2020_15,1,puppy,15,1416,puppy,target,29,77,0.27358490566037735,NA,1,NA,0,NA,1,483.33333333333337,483.33333333333337,58,-10
1806_garrison_bergelson_2020_15,8,stroller,15,1416,stroller,target,55,51,0.5188679245283019,0.08962264150943394,3,NA,0,NA,3,305.55555555555554,266.6666666666667,42,-10
1806_garrison_bergelson_2020_15,10,book,15,1416,book,target,42,64,0.39622641509433965,NA,1,NA,0,NA,1,450.00000000000006,450.00000000000006,54,-10
1806_garrison_bergelson_2020_15,11,shoe,15,1416,shoe,target,84,5,0.9438202247191011,NA,1,NA,1,NA,0,1366.6666666666667,1366.6666666666667,164,-10
1806_garrison_bergelson_2020_15,15,blocks,15,1416,blocks,target,63,43,0.5943396226415094,-0.08490566037735847,1,NA,0,NA,1,933.3333333333334,933.3333333333334,112,-10
1806_garrison_bergelson_2020_15,17,puppy,15,1416,puppy,target,106,0,1,NA,1,NA,1,NA,0,1766.6666666666667,1766.6666666666667,212,-10
1806_garrison_bergelson_2020_15,26,book,15,1416,book,target,84,22,0.7924528301886793,NA,2,NA,0,NA,2,700,800,96,-10
1806_garrison_bergelson_2020_15,30,blocks,15,1416,blocks,target,21,48,0.30434782608695654,-0.08490566037735847,1,NA,0,NA,1,350,350,42,-10
1807_garrison_bergelson_2020_17,2,horse,17,1417,horse,target,47,59,0.44339622641509435,-0.06603773584905659,2,NA,0,NA,2,391.6666666666667,433.33333333333337,52,-8
1807_garrison_bergelson_2020_17,5,bottle,17,1417,bottle,target,90,16,0.8490566037735849,0.7405660377358491,1,NA,1,NA,1,1350,1350,162,-8
1807_garrison_bergelson_2020_17,10,whale,17,1417,whale,target,36,70,0.33962264150943394,0.24056603773584903,1,NA,0,NA,1,416.6666666666667,416.6666666666667,50,-8
1807_garrison_bergelson_2020_17,17,shoe,17,1417,shoe,target,106,0,1,0.7405660377358491,1,NA,1,NA,0,1766.6666666666667,1766.6666666666667,212,-8
1807_garrison_bergelson_2020_17,20,tiger,17,1417,tiger,target,69,28,0.711340206185567,NA,1,NA,0,NA,1,1000.0000000000001,1000.0000000000001,120,-8
1807_garrison_bergelson_2020_17,22,owl,17,1417,owl,target,37,54,0.4065934065934066,-0.20754716981132076,1,NA,0,NA,2,466.6666666666667,466.6666666666667,56,-8
1807_garrison_bergelson_2020_17,23,bottle,17,1417,bottle,target,67,39,0.6320754716981132,0.7405660377358491,1,NA,1,NA,1,1116.6666666666667,1116.6666666666667,134,-8
1807_garrison_bergelson_2020_17,28,book,17,1417,book,target,85,21,0.8018867924528302,0.24056603773584906,1,NA,1,NA,1,1416.6666666666667,1416.6666666666667,170,-8
1807_garrison_bergelson_2020_17,32,book,17,1417,book,target,106,0,1,0.24056603773584906,1,NA,1,NA,0,1766.6666666666667,1766.6666666666667,212,-8
1808_garrison_bergelson_2020_17,1,baby,17,1418,baby,target,38,68,0.3584905660377358,-0.12264150943396229,1,NA,0,NA,1,550,550,66,-8
1808_garrison_bergelson_2020_17,2,bottle,17,1418,bottle,target,7,88,0.07368421052631578,0.053168843734881455,NA,NA,0,NA,0,NA,NA,NA,-8
1808_garrison_bergelson_2020_17,5,doggy,17,1418,doggy,target,54,52,0.5094339622641509,-0.12264150943396224,2,NA,0,NA,3,450,250.00000000000003,78,-8
1808_garrison_bergelson_2020_17,13,bottle,17,1418,bottle,target,42,41,0.5060240963855421,0.053168843734881455,1,NA,0,NA,1,700,700,84,-8
1808_garrison_bergelson_2020_17,15,book,17,1418,book,target,97,9,0.9150943396226415,NA,1,NA,1,NA,0,1616.6666666666667,1616.6666666666667,194,-8
1808_garrison_bergelson_2020_17,22,stroller,17,1418,stroller,target,85,21,0.8018867924528302,0.1403483309143687,2,NA,0,NA,2,708.3333333333334,250.00000000000003,140,-8
1808_garrison_bergelson_2020_17,23,doggy,17,1418,doggy,target,56,50,0.5283018867924528,-0.12264150943396224,2,NA,0,NA,2,466.66666666666674,433.33333333333337,60,-8
1808_garrison_bergelson_2020_17,26,sunglasses,17,1418,sunglasses,target,30,76,0.2830188679245283,NA,1,NA,0,NA,1,500.00000000000006,500.00000000000006,60,-8
1808_garrison_bergelson_2020_17,30,book,17,1418,book,target,99,0,1,NA,2,NA,1,NA,0,825,700,114,-8
1811_garrison_bergelson_2020_14,5,kitty,14,1421,kitty,target,52,54,0.49056603773584906,NA,1,NA,0,NA,1,866.6666666666667,866.6666666666667,104,-11
1811_garrison_bergelson_2020_14,8,bottle,14,1421,bottle,target,47,32,0.5949367088607594,0.1556603773584906,1,NA,0,NA,2,600,600,72,-11
1811_garrison_bergelson_2020_14,10,teddy,14,1421,teddy,target,56,50,0.5283018867924528,NA,2,NA,0,NA,2,466.66666666666674,416.6666666666667,62,-11
1811_garrison_bergelson_2020_14,14,phone,14,1421,phone,target,45,61,0.42452830188679247,0.3349056603773585,1,NA,0,NA,1,750,750,90,-11
1811_garrison_bergelson_2020_14,20,blocks,14,1421,blocks,target,106,0,1,0.33018867924528306,1,NA,1,NA,0,1766.6666666666667,1766.6666666666667,212,-11
1811_garrison_bergelson_2020_14,22,phone,14,1421,phone,target,90,0,1,0.3349056603773585,2,NA,1,NA,0,750,983.3333333333334,118,-11
1811_garrison_bergelson_2020_14,27,shoe,14,1421,shoe,target,35,71,0.330188679245283,0.330188679245283,1,NA,0,NA,1,583.3333333333334,583.3333333333334,70,-11
1811_garrison_bergelson_2020_14,29,teddy,14,1421,teddy,target,14,86,0.14,NA,1,NA,0,NA,1,233.33333333333334,233.33333333333334,28,-11
1812_garrison_bergelson_2020_17,1,diaper,17,1422,diaper,target,52,54,0.49056603773584906,0.5283018867924528,1,NA,0,NA,2,800,800,96,-8
1812_garrison_bergelson_2020_17,8,shoe,17,1422,shoe,target,63,43,0.5943396226415094,NA,1,NA,1,NA,1,1050,1050,126,-8
1812_garrison_bergelson_2020_17,10,book,17,1422,book,target,24,82,0.22641509433962265,0.037735849056603765,1,NA,0,NA,1,400,400,48,-8
1812_garrison_bergelson_2020_17,17,diaper,17,1422,diaper,target,60,46,0.5660377358490566,0.5283018867924528,1,NA,1,NA,1,1000.0000000000001,1000.0000000000001,120,-8
1812_garrison_bergelson_2020_17,23,car,17,1422,car,target,106,0,1,0.5283018867924528,1,NA,1,NA,0,1766.6666666666667,1766.6666666666667,212,-8
1812_garrison_bergelson_2020_17,28,puppy,17,1422,puppy,target,31,40,0.43661971830985913,-0.12735849056603776,1,NA,0,NA,1,516.6666666666667,516.6666666666667,62,-8
1812_garrison_bergelson_2020_17,32,puppy,17,1422,puppy,target,106,0,1,-0.12735849056603776,1,NA,1,NA,0,1766.6666666666667,1766.6666666666667,212,-8
1813_garrison_bergelson_2020_12,1,ball,12,1423,ball,target,79,27,0.7452830188679245,0.6252830188679245,2,NA,0,NA,2,658.3333333333334,700,84,-13
1813_garrison_bergelson_2020_12,2,bed,12,1423,bed,target,45,40,0.5294117647058824,NA,2,NA,0,NA,3,375,550,66,-13
1813_garrison_bergelson_2020_12,6,puppy,12,1423,puppy,target,87,19,0.8207547169811321,0.5615401491882404,2,NA,0,NA,2,725.0000000000001,950.0000000000001,114,-13
1813_garrison_bergelson_2020_12,8,teddy,12,1423,teddy,target,84,22,0.7924528301886793,NA,2,NA,0,NA,2,700,533.3333333333334,104,-13
1813_garrison_bergelson_2020_12,13,book,12,1423,book,target,56,30,0.6511627906976745,0.5615401491882405,1,NA,0,NA,1,933.3333333333334,933.3333333333334,112,-13
1813_garrison_bergelson_2020_12,17,teddy,12,1423,teddy,target,42,23,0.6461538461538462,NA,1,NA,1,NA,1,616.6666666666667,616.6666666666667,74,-13
1813_garrison_bergelson_2020_12,19,puppy,12,1423,puppy,target,106,0,1,0.5615401491882404,1,NA,1,NA,0,1766.6666666666667,1766.6666666666667,212,-13
1813_garrison_bergelson_2020_12,21,diaper,12,1423,diaper,target,88,12,0.88,0.6252830188679246,1,NA,1,NA,1,1466.6666666666667,1466.6666666666667,176,-13
1814_garrison_bergelson_2020_12,2,block,12,1424,block,target,46,60,0.4339622641509434,0.23113207547169812,2,NA,0,NA,3,383.33333333333337,366.6666666666667,48,-13
1814_garrison_bergelson_2020_12,6,truck,12,1424,truck,target,87,19,0.8207547169811321,0.5654355680449619,2,NA,0,NA,2,725,466.6666666666667,118,-13
1814_garrison_bergelson_2020_12,11,cat,12,1424,cat,target,106,0,1,NA,1,NA,1,NA,0,1766.6666666666667,1766.6666666666667,212,-13
1814_garrison_bergelson_2020_12,15,headphones,12,1424,headphones,target,97,9,0.9150943396226415,0.23113207547169812,2,NA,0,NA,0,808.3333333333335,666.6666666666667,114,-13
1814_garrison_bergelson_2020_12,23,headphones,12,1424,headphones,target,72,34,0.6792452830188679,0.23113207547169812,3,NA,0,NA,2,400.00000000000006,200,74,-13
1814_garrison_bergelson_2020_12,26,brush,12,1424,brush,target,43,24,0.6417910447761194,0.27820152549177035,1,NA,0,NA,1,716.6666666666667,716.6666666666667,86,-13
1814_garrison_bergelson_2020_12,28,ball,12,1424,ball,target,35,28,0.5555555555555556,NA,2,NA,0,NA,2,291.6666666666667,300,36,-13
1815_garrison_bergelson_2020_14,1,doggy,14,1425,doggy,target,64,42,0.6037735849056604,0.36792452830188677,2,NA,0,NA,2,533.3333333333334,483.33333333333337,70,-11
1815_garrison_bergelson_2020_14,2,diaper,14,1425,diaper,target,50,56,0.4716981132075472,0.36792452830188677,1,NA,0,NA,1,733.3333333333334,733.3333333333334,88,-11
1815_garrison_bergelson_2020_14,8,vacuum,14,1425,vacuum,target,106,0,1,NA,1,NA,1,NA,0,1766.6666666666667,1766.6666666666667,212,-11
1815_garrison_bergelson_2020_14,11,bathtub,14,1425,bathtub,target,45,35,0.5625,0.12264150943396229,1,NA,1,NA,1,683.3333333333334,683.3333333333334,82,-11
1815_garrison_bergelson_2020_14,13,diaper,14,1425,diaper,target,98,8,0.9245283018867925,0.36792452830188677,1,NA,1,NA,0,1633.3333333333335,1633.3333333333335,196,-11
1815_garrison_bergelson_2020_14,20,vacuum,14,1425,vacuum,target,54,0,1,NA,1,NA,1,NA,0,900.0000000000001,900.0000000000001,108,-11
1815_garrison_bergelson_2020_14,23,bear,14,1425,bear,target,81,25,0.7641509433962265,0.3679245283018868,1,NA,1,NA,1,1316.6666666666667,1316.6666666666667,158,-11
1819_garrison_bergelson_2020_13,5,book,13,1429,book,target,106,0,1,NA,1,NA,1,NA,0,1766.6666666666667,1766.6666666666667,212,-12
1819_garrison_bergelson_2020_13,10,shoes,13,1429,shoes,target,0,106,0,NA,NA,NA,0,NA,0,NA,NA,NA,-12
1819_garrison_bergelson_2020_13,13,stroller,13,1429,stroller,target,55,0,1,NA,1,NA,1,NA,0,916.6666666666667,916.6666666666667,110,-12
1819_garrison_bergelson_2020_13,15,bottle,13,1429,bottle,target,106,0,1,0.3584905660377359,1,NA,1,NA,0,1766.6666666666667,1766.6666666666667,212,-12
1819_garrison_bergelson_2020_13,20,chair,13,1429,chair,target,23,68,0.25274725274725274,0.2169811320754717,1,NA,0,NA,1,383.33333333333337,383.33333333333337,46,-12
1820_garrison_bergelson_2020_15,1,baby,15,1430,baby,target,47,59,0.44339622641509435,NA,2,NA,0,NA,3,308.33333333333337,216.66666666666669,48,-10
1820_garrison_bergelson_2020_15,8,book,15,1430,book,target,45,61,0.42452830188679247,0.38207547169811323,1,NA,0,NA,2,733.3333333333334,733.3333333333334,88,-10
1820_garrison_bergelson_2020_15,9,socks,15,1430,socks,target,53,53,0.5,NA,2,NA,0,NA,3,350,400,48,-10
1820_garrison_bergelson_2020_15,11,car,15,1430,car,target,71,35,0.6698113207547169,0.3820754716981132,2,NA,0,NA,2,591.6666666666667,850.0000000000001,102,-10
1820_garrison_bergelson_2020_15,13,blocks,15,1430,blocks,target,75,31,0.7075471698113207,NA,1,NA,1,NA,1,1133.3333333333335,1133.3333333333335,136,-10
1820_garrison_bergelson_2020_15,17,book,15,1430,book,target,106,0,1,0.38207547169811323,1,NA,1,NA,0,1766.6666666666667,1766.6666666666667,212,-10
1820_garrison_bergelson_2020_15,26,blocks,15,1430,blocks,target,62,44,0.5849056603773585,NA,2,NA,0,NA,2,516.6666666666667,750,90,-10
1820_garrison_bergelson_2020_15,28,baby,15,1430,baby,target,25,73,0.25510204081632654,NA,1,NA,0,NA,1,250.00000000000003,250.00000000000003,30,-10
1821_garrison_bergelson_2020_12,2,drum,12,1431,drum,target,49,57,0.46226415094339623,-0.3867924528301887,2,NA,0,NA,2,408.33333333333337,433.33333333333337,52,-13
1821_garrison_bergelson_2020_12,5,book,12,1431,book,target,63,17,0.7875,NA,1,NA,1,NA,1,1050,1050,126,-13
1821_garrison_bergelson_2020_12,11,hammer,12,1431,hammer,target,16,90,0.1509433962264151,-0.3867924528301887,NA,NA,0,NA,0,NA,NA,NA,-13
1821_garrison_bergelson_2020_12,15,cat,12,1431,cat,target,94,12,0.8867924528301887,NA,1,NA,1,NA,1,1566.6666666666667,1566.6666666666667,188,-13
1821_garrison_bergelson_2020_12,23,book,12,1431,book,target,24,44,0.35294117647058826,NA,1,NA,0,NA,2,316.6666666666667,316.6666666666667,38,-13
1821_garrison_bergelson_2020_12,30,cat,12,1431,cat,target,106,0,1,NA,1,NA,1,NA,0,1766.6666666666667,1766.6666666666667,212,-13
1822_garrison_bergelson_2020_13,2,book,13,1432,book,target,76,18,0.8085106382978723,0.6132075471698113,2,NA,0,NA,2,633.3333333333334,733.3333333333334,88,-12
1822_garrison_bergelson_2020_13,4,train,13,1432,train,target,106,0,1,NA,1,NA,1,NA,0,1766.6666666666667,1766.6666666666667,212,-12
1822_garrison_bergelson_2020_13,9,book,13,1432,book,target,54,49,0.5242718446601942,0.6132075471698113,2,NA,0,NA,2,450,533.3333333333334,64,-12
1822_garrison_bergelson_2020_13,11,kitty,13,1432,kitty,target,63,43,0.5943396226415094,NA,2,NA,0,NA,3,525,350,84,-12
1822_garrison_bergelson_2020_13,15,phone,13,1432,phone,target,3,0,1,0.6839622641509434,NA,NA,1,NA,NA,NA,NA,NA,-12
1822_garrison_bergelson_2020_13,18,blanket,13,1432,blanket,target,28,0,1,NA,1,NA,1,NA,0,466.6666666666667,466.6666666666667,56,-12
1822_garrison_bergelson_2020_13,20,train,13,1432,train,target,63,0,1,NA,1,NA,1,NA,0,1050,1050,126,-12
1822_garrison_bergelson_2020_13,22,phone,13,1432,phone,target,44,0,1,0.6839622641509434,1,NA,1,NA,0,733.3333333333334,733.3333333333334,88,-12
1823_garrison_bergelson_2020_14,1,guitar,14,1433,guitar,target,55,51,0.5188679245283019,NA,1,NA,0,NA,1,916.6666666666667,916.6666666666667,110,-11
1823_garrison_bergelson_2020_14,2,truck,14,1433,truck,target,85,21,0.8018867924528302,0.6524390243902439,2,NA,0,NA,2,708.3333333333335,850.0000000000001,102,-11
1823_garrison_bergelson_2020_14,10,train,14,1433,train,target,48,13,0.7868852459016393,NA,1,NA,0,NA,1,800,800,96,-11
1823_garrison_bergelson_2020_14,13,truck,14,1433,truck,target,22,33,0.4,0.6524390243902439,1,NA,0,NA,1,366.6666666666667,366.6666666666667,44,-11
1823_garrison_bergelson_2020_14,15,shoes,14,1433,shoes,target,0,36,0,NA,NA,NA,0,NA,0,NA,NA,NA,-11
1823_garrison_bergelson_2020_14,22,waterbottle,14,1433,waterbottle,target,89,0,1,0.6707317073170731,1,NA,1,NA,0,1483.3333333333335,1483.3333333333335,178,-11
1823_garrison_bergelson_2020_14,26,train,14,1433,train,target,93,0,1,NA,1,NA,1,NA,0,1383.3333333333335,1383.3333333333335,166,-11
1824_garrison_bergelson_2020_15,2,blueberries,15,1434,blueberries,target,106,0,1,NA,1,NA,1,NA,0,1766.6666666666667,1766.6666666666667,212,-10
1824_garrison_bergelson_2020_15,8,shoe,15,1434,shoe,target,78,28,0.7358490566037735,0.19811320754716977,2,NA,0,NA,2,650,233.33333333333334,128,-10
1824_garrison_bergelson_2020_15,9,blueberries,15,1434,blueberries,target,106,0,1,NA,1,NA,1,NA,0,1766.6666666666667,1766.6666666666667,212,-10
1824_garrison_bergelson_2020_15,28,ball,15,1434,ball,target,82,9,0.9010989010989011,NA,2,NA,0,NA,0,683.3333333333334,900.0000000000001,108,-10
1824_garrison_bergelson_2020_15,30,diaper,15,1434,diaper,target,49,57,0.46226415094339623,0.19811320754716982,2,NA,0,NA,3,408.33333333333337,283.33333333333337,64,-10
1825_garrison_bergelson_2020_12,1,cow,12,1435,cow,target,106,0,1,0.5471698113207548,1,NA,1,NA,0,1766.6666666666667,1766.6666666666667,212,-13
1825_garrison_bergelson_2020_12,5,dog,12,1435,dog,target,48,30,0.6153846153846154,0.28301886792452835,1,NA,0,NA,1,716.6666666666667,716.6666666666667,86,-13
1825_garrison_bergelson_2020_12,8,remote,12,1435,remote,target,106,0,1,NA,1,NA,1,NA,0,1766.6666666666667,1766.6666666666667,212,-13
1825_garrison_bergelson_2020_12,10,shoe,12,1435,shoe,target,106,0,1,1,1,NA,1,NA,0,1766.6666666666667,1766.6666666666667,212,-13
1825_garrison_bergelson_2020_12,11,highchair,12,1435,highchair,target,38,66,0.36538461538461536,NA,1,NA,0,NA,1,633.3333333333334,633.3333333333334,76,-13
1825_garrison_bergelson_2020_12,17,cow,12,1435,cow,target,70,36,0.660377358490566,0.5471698113207548,1,NA,1,NA,1,1166.6666666666667,1166.6666666666667,140,-13
1825_garrison_bergelson_2020_12,25,book,12,1435,book,target,61,0,1,0.5754716981132075,2,NA,1,NA,0,508.33333333333337,350,80,-13
1826_garrison_bergelson_2020_12,6,puppy,12,1436,puppy,target,106,0,1,NA,1,NA,1,NA,0,1766.6666666666667,1766.6666666666667,212,-13
1826_garrison_bergelson_2020_12,9,brush,12,1436,brush,target,85,21,0.8018867924528302,0.3867924528301887,2,NA,1,NA,2,708.3333333333334,1183.3333333333335,142,-13
1826_garrison_bergelson_2020_12,15,water,12,1436,water,target,62,44,0.5849056603773585,0.38679245283018865,1,NA,1,NA,1,1033.3333333333335,1033.3333333333335,124,-13
1826_garrison_bergelson_2020_12,19,puppy,12,1436,puppy,target,106,0,1,NA,1,NA,1,NA,0,1766.6666666666667,1766.6666666666667,212,-13
1826_garrison_bergelson_2020_12,28,book,12,1436,book,target,106,0,1,NA,1,NA,1,NA,0,1766.6666666666667,1766.6666666666667,212,-13
1826_garrison_bergelson_2020_12,30,ducky,12,1436,ducky,target,52,30,0.6341463414634146,NA,1,NA,0,NA,1,866.6666666666667,866.6666666666667,104,-13
1827_garrison_bergelson_2020_14,1,cup,14,1437,cup,target,106,0,1,0.7169811320754718,1,NA,1,NA,0,1766.6666666666667,1766.6666666666667,212,-11
1827_garrison_bergelson_2020_14,8,chair,14,1437,chair,target,14,92,0.1320754716981132,-0.0849056603773585,1,NA,0,NA,1,233.33333333333334,233.33333333333334,28,-11
1827_garrison_bergelson_2020_14,11,train,14,1437,train,target,106,0,1,NA,1,NA,1,NA,0,1766.6666666666667,1766.6666666666667,212,-11
1827_garrison_bergelson_2020_14,23,book,14,1437,book,target,76,30,0.71698113207547165,0.71698113207547165,1,NA,0,NA,1,1266.6666666666667,1266.6666666666667,152,-11
1827_garrison_bergelson_2020_14,30,blocks,14,1437,blocks,target,76,23,0.7676767676767676,-0.15094339622641517,1,NA,1,NA,1,1266.6666666666667,1266.6666666666667,152,-11
1828_garrison_bergelson_2020_16,1,ball,16,1438,ball,target,65,25,0.7222222222222222,0.09433962264150941,2,NA,0,NA,2,541.6666666666667,533.3333333333334,66,-9
1828_garrison_bergelson_2020_16,2,phone,16,1438,phone,target,68,38,0.6415094339622641,0.004716981132075526,2,NA,0,NA,3,533.3333333333334,483.33333333333337,70,-9
1828_garrison_bergelson_2020_16,4,shoes,16,1438,shoes,target,26,80,0.24528301886792453,0.24528301886792453,1,NA,0,NA,2,383.33333333333337,383.33333333333337,46,-9
1828_garrison_bergelson_2020_16,8,giraffe,16,1438,giraffe,target,46,60,0.4339622641509434,NA,2,NA,0,NA,2,383.33333333333337,483.33333333333337,58,-9
1828_garrison_bergelson_2020_16,9,phone,16,1438,phone,target,55,30,0.6470588235294118,0.004716981132075526,3,NA,0,NA,4,305.5555555555556,416.6666666666667,50,-9
1828_garrison_bergelson_2020_16,15,milk,16,1438,milk,target,13,61,0.17567567567567569,-0.1981132075471698,1,NA,0,NA,1,216.66666666666669,216.66666666666669,26,-9
1828_garrison_bergelson_2020_16,19,kitty,16,1438,kitty,target,68,38,0.6415094339622641,0.6415094339622641,2,NA,0,NA,2,566.6666666666667,766.6666666666667,92,-9
1828_garrison_bergelson_2020_16,21,shoes,16,1438,shoes,target,76,30,0.71698113207547165,0.24528301886792453,2,NA,0,NA,2,633.3333333333334,466.6666666666667,96,-9
1828_garrison_bergelson_2020_16,26,bird,16,1438,bird,target,106,0,1,0.6415094339622642,1,NA,1,NA,0,1766.6666666666667,1766.6666666666667,212,-9
1829_garrison_bergelson_2020_15,8,diaper,15,1439,diaper,target,8,85,0.08602150537634409,0.4716981132075472,NA,NA,0,NA,0,NA,NA,NA,-10
1829_garrison_bergelson_2020_15,10,milk,15,1439,milk,target,106,0,1,0.8360655737704918,1,NA,1,NA,0,1766.6666666666667,1766.6666666666667,212,-10
1829_garrison_bergelson_2020_15,11,car,15,1439,car,target,61,0,1,NA,1,NA,1,NA,0,1016.6666666666667,1016.6666666666667,122,-10
1829_garrison_bergelson_2020_15,15,book,15,1439,book,target,106,0,1,0.5330188679245282,1,NA,1,NA,0,1766.6666666666667,1766.6666666666667,212,-10
1829_garrison_bergelson_2020_15,17,crib,15,1439,crib,target,81,25,0.7641509433962265,NA,2,NA,0,NA,2,675,816.6666666666667,98,-10
1829_garrison_bergelson_2020_15,20,diaper,15,1439,diaper,target,92,14,0.8679245283018868,0.4716981132075472,1,NA,1,NA,1,1533.3333333333335,1533.3333333333335,184,-10
1829_garrison_bergelson_2020_15,28,keys,15,1439,keys,target,99,0,1,0.7978142076502732,1,NA,1,NA,0,1650.0000000000002,1650.0000000000002,198,-10
1829_garrison_bergelson_2020_15,32,keys,15,1439,keys,target,47,30,0.6103896103896104,0.7978142076502732,1,NA,0,NA,1,633.3333333333334,633.3333333333334,76,-10
1830_garrison_bergelson_2020_15,2,blanket,15,1440,blanket,target,55,50,0.5238095238095238,NA,2,NA,0,NA,3,425,416.6666666666667,52,-10
1830_garrison_bergelson_2020_15,4,phone,15,1440,phone,target,46,60,0.4339622641509434,0.3113207547169812,3,NA,0,NA,4,255.55555555555557,333.33333333333337,40,-10
1830_garrison_bergelson_2020_15,13,bottle,15,1440,bottle,target,98,8,0.9245283018867925,NA,1,NA,1,NA,0,1633.3333333333335,1633.3333333333335,196,-10
1830_garrison_bergelson_2020_15,17,pacifier,15,1440,pacifier,target,51,55,0.4811320754716981,0.06603773584905659,1,NA,0,NA,1,716.6666666666667,716.6666666666667,86,-10
1830_garrison_bergelson_2020_15,26,bottle,15,1440,bottle,target,106,0,1,NA,1,NA,1,NA,0,1766.6666666666667,1766.6666666666667,212,-10
1830_garrison_bergelson_2020_15,28,ball,15,1440,ball,target,93,13,0.8773584905660378,0.3113207547169812,2,NA,0,NA,2,775,733.3333333333334,98,-10
1830_garrison_bergelson_2020_15,30,remote,15,1440,remote,target,62,44,0.5849056603773585,0.06603773584905659,2,NA,0,NA,2,516.6666666666667,516.6666666666667,62,-10
1831_garrison_bergelson_2020_17,2,sippy,17,1441,sippy,target,29,73,0.28431372549019607,NA,1,NA,0,NA,1,483.33333333333337,483.33333333333337,58,-8
1831_garrison_bergelson_2020_17,10,car,17,1441,car,target,98,0,1,0.7452830188679246,1,NA,1,NA,0,1633.3333333333335,1633.3333333333335,196,-8
1831_garrison_bergelson_2020_17,13,sippy,17,1441,sippy,target,54,49,0.5242718446601942,NA,1,NA,0,NA,1,900.0000000000001,900.0000000000001,108,-8
1831_garrison_bergelson_2020_17,20,owl,17,1441,owl,target,87,19,0.8207547169811321,NA,2,NA,0,NA,2,725,683.3333333333334,92,-8
1831_garrison_bergelson_2020_17,28,shoes,17,1441,shoes,target,106,0,1,0.6367924528301887,1,NA,1,NA,0,1766.6666666666667,1766.6666666666667,212,-8
1831_garrison_bergelson_2020_17,32,shoes,17,1441,shoes,target,29,38,0.43283582089552236,0.6367924528301887,1,NA,0,NA,1,483.33333333333337,483.33333333333337,58,-8
1832_garrison_bergelson_2020_18,1,wagon,18,1442,wagon,target,103,3,0.9716981132075472,0.37264150943396224,1,NA,1,NA,0,1716.6666666666667,1716.6666666666667,206,-7
1832_garrison_bergelson_2020_18,6,chair,18,1442,chair,target,66,40,0.6226415094339622,0.6226415094339622,2,NA,0,NA,2,550,500.00000000000006,72,-7
